trials.thisRepN,trials.thisTrialN,trials.thisN,trials.thisIndex,thisRow.t,notes,trial.started,num_distr,fixation.started,target.started,mouse.started,fixation.stopped,trial.stopped,mouse.x,mouse.y,mouse.leftButton,mouse.midButton,mouse.rightButton,mouse.time,mouse.clicked_name,participant,session,date,expName,psychopyVersion,frameRate,expStart,
0,0,0,0,0.10747870011255145,,0.03135649999603629,10,0.10747870011255145,0.10747870011255145,0.0750238997861743,1.1077346000820398,2.310686499811709,[-0.19166666666666668],[-0.4216666666666667],[1],[0],[0],[2.2349062003195286],['target'],P1,001,2024-10-10_19h50.19.137,visual search task,2024.1.5,None,2024-10-10 19h50.31.463487 +0530,
1,0,1,0,2.338185000233352,,2.3152538002468646,5,2.338185000233352,2.338185000233352,0.014165299944579601,3.3407145999372005,4.7749573001638055,[0.445],[-0.46166666666666667],[1],[0],[0],[2.445659799966961],['target'],P1,001,2024-10-10_19h50.19.137,visual search task,2024.1.5,None,2024-10-10 19h50.31.463487 +0530,
2,0,2,0,4.821864199824631,,4.77778030000627,10,4.821864199824631,4.821864199824631,0.0249802996404469,5.82386999996379,6.489911399781704,[0.43],[0.23666666666666666],[1],[0],[0],[1.6873530000448227],['target'],P1,001,2024-10-10_19h50.19.137,visual search task,2024.1.5,None,2024-10-10 19h50.31.463487 +0530,
3,0,3,0,6.521989299915731,,6.492794900201261,5,6.521989299915731,6.521989299915731,0.015300099737942219,7.525983300060034,9.641644100192934,[-0.3233333333333333],[-0.3983333333333333],[1],[0],[0],[3.133669499773532],[],P1,001,2024-10-10_19h50.19.137,visual search task,2024.1.5,None,2024-10-10 19h50.31.463487 +0530,
4,0,4,0,9.674630700144917,,9.644515399821103,5,9.674630700144917,9.674630700144917,0.014914100058376789,10.691147100180387,11.293155800085515,[0.28],[-0.04666666666666667],[1],[0],[0],[1.6340169003233314],['target'],P1,001,2024-10-10_19h50.19.137,visual search task,2024.1.5,None,2024-10-10 19h50.31.463487 +0530,
5,0,5,0,11.322334399912506,,11.29598530009389,5,11.322334399912506,11.322334399912506,0.01359659992158413,12.324370800051838,12.692415200173855,[0.205],[0.15833333333333333],[1],[0],[0],[1.3831193000078201],['target'],P1,001,2024-10-10_19h50.19.137,visual search task,2024.1.5,None,2024-10-10 19h50.31.463487 +0530,
6,0,6,0,12.744201300200075,,12.695214199833572,10,12.744201300200075,12.744201300200075,0.025345600210130215,13.758511300198734,14.358517699874938,[-0.20833333333333334],[-0.051666666666666666],[1],[0],[0],[1.637994599994272],['target'],P1,001,2024-10-10_19h50.19.137,visual search task,2024.1.5,None,2024-10-10 19h50.31.463487 +0530,
7,0,7,0,14.405223799869418,,14.361753600183874,10,14.405223799869418,14.405223799869418,0.023052799981087446,15.423376299906522,16.04385480005294,[0.041666666666666664],[-0.15166666666666667],[1],[0],[0],[1.6592333000153303],['target'],P1,001,2024-10-10_19h50.19.137,visual search task,2024.1.5,None,2024-10-10 19h50.31.463487 +0530,
8,0,8,0,16.088462200015783,,16.04844949999824,5,16.088462200015783,16.088462200015783,0.019303100183606148,17.09135189978406,18.741584400180727,[0.10333333333333333],[0.42833333333333334],[1],[0],[0],[2.6743532000109553],['target'],P1,001,2024-10-10_19h50.19.137,visual search task,2024.1.5,None,2024-10-10 19h50.31.463487 +0530,
9,0,9,0,18.80767389992252,,18.74605379998684,10,18.80767389992252,18.80767389992252,0.0370661998167634,19.858425099868327,20.50894090021029,[0.41],[-0.006666666666666667],[1],[0],[0],[1.7260006996802986],['target'],P1,001,2024-10-10_19h50.19.137,visual search task,2024.1.5,None,2024-10-10 19h50.31.463487 +0530,
10,0,10,0,20.590970700141042,,20.516840000171214,10,20.590970700141042,20.590970700141042,0.04925590008497238,21.607880000025034,21.959281499963254,[0.4666666666666667],[-0.03333333333333333],[1],[0],[0],[1.3943807003088295],['target'],P1,001,2024-10-10_19h50.19.137,visual search task,2024.1.5,None,2024-10-10 19h50.31.463487 +0530,
11,0,11,0,22.025005800183862,,21.963925499934703,10,22.025005800183862,22.025005800183862,0.0356844998896122,23.04100240021944,23.429522499907762,[-0.13],[-0.023333333333333334],[1],[0],[0],[1.4303712998516858],['target'],P1,001,2024-10-10_19h50.19.137,visual search task,2024.1.5,None,2024-10-10 19h50.31.463487 +0530,
12,0,12,0,23.505053400062025,,23.434255000203848,10,23.505053400062025,23.505053400062025,0.05008989991620183,24.507778599858284,24.927257100120187,[0.03],[-0.36666666666666664],[1],[0],[0],[1.4434083998203278],['target'],P1,001,2024-10-10_19h50.19.137,visual search task,2024.1.5,None,2024-10-10 19h50.31.463487 +0530,
13,0,13,0,25.004948399960995,,24.932009200099856,10,25.004948399960995,25.004948399960995,0.04278870020061731,26.04151239991188,26.423389500007033,[0.20166666666666666],[0.09],[1],[0],[0],[1.4491314003244042],['target'],P1,001,2024-10-10_19h50.19.137,visual search task,2024.1.5,None,2024-10-10 19h50.31.463487 +0530,
14,0,14,0,26.47435100004077,,26.427990899886936,5,26.47435100004077,26.47435100004077,0.019461899995803833,27.49182080011815,27.642384700011462,[-0.23],[-0.095],[1],[0],[0],[1.1954769999720156],['target'],P1,001,2024-10-10_19h50.19.137,visual search task,2024.1.5,None,2024-10-10 19h50.31.463487 +0530,
15,0,15,0,27.691886899992824,,27.64692630013451,5,27.691886899992824,27.691886899992824,0.019640000071376562,28.69110900023952,29.409986900165677,[-0.49666666666666665],[0.265],[1],[0],[0],[1.743987999856472],['target'],P1,001,2024-10-10_19h50.19.137,visual search task,2024.1.5,None,2024-10-10 19h50.31.463487 +0530,
16,0,16,0,29.455121799837798,,29.414540899917483,5,29.455121799837798,29.455121799837798,0.020250600297003984,30.457638800144196,30.85987630020827,[0.22],[0.32],[1],[0],[0],[1.425445799715817],['target'],P1,001,2024-10-10_19h50.19.137,visual search task,2024.1.5,None,2024-10-10 19h50.31.463487 +0530,
17,0,17,0,30.909327699802816,,30.86466269986704,5,30.909327699802816,30.909327699802816,0.023073900025337934,31.90748090017587,32.62660010019317,[0.43666666666666665],[0.265],[1],[0],[0],[1.7393900998868048],['target'],P1,001,2024-10-10_19h50.19.137,visual search task,2024.1.5,None,2024-10-10 19h50.31.463487 +0530,
18,0,18,0,32.6714078001678,,32.63118189992383,5,32.6714078001678,32.6714078001678,0.020912399981170893,33.67548679979518,34.09349749982357,[-0.29],[0.25],[1],[0],[0],[1.4417552002705634],['target'],P1,001,2024-10-10_19h50.19.137,visual search task,2024.1.5,None,2024-10-10 19h50.31.463487 +0530,
19,0,19,0,34.13905020011589,,34.10136360023171,5,34.13905020011589,34.13905020011589,0.029253500048071146,35.14114600000903,35.89308369997889,[0.25],[-0.28],[1],[0],[0],[1.7636820999905467],['target'],P1,001,2024-10-10_19h50.19.137,visual search task,2024.1.5,None,2024-10-10 19h50.31.463487 +0530,
20,0,20,0,35.93919999990612,,35.89727379987016,10,35.93919999990612,35.93919999990612,0.03003939986228943,36.94281829986721,37.36106720007956,[0.15],[0.235],[1],[0],[0],[1.4340595002286136],['target'],P1,001,2024-10-10_19h50.19.137,visual search task,2024.1.5,None,2024-10-10 19h50.31.463487 +0530,
21,0,21,0,37.426286099944264,,37.36432459997013,10,37.426286099944264,37.426286099944264,0.03510620025917888,38.440499499905854,38.94194980012253,[-0.21166666666666667],[-0.065],[1],[0],[0],[1.5428764000535011],['target'],P1,001,2024-10-10_19h50.19.137,visual search task,2024.1.5,None,2024-10-10 19h50.31.463487 +0530,
22,0,22,0,38.971748900134116,,38.944903700146824,5,38.971748900134116,38.971748900134116,0.013573199976235628,39.97508809994906,40.36195999989286,[0.16333333333333333],[-0.06166666666666667],[1],[0],[0],[1.4034854001365602],['target'],P1,001,2024-10-10_19h50.19.137,visual search task,2024.1.5,None,2024-10-10 19h50.31.463487 +0530,
23,0,23,0,40.44152110023424,,40.36999229993671,10,40.44152110023424,40.44152110023424,0.04791339999064803,41.473085899837315,41.94460749998689,[-0.44666666666666666],[-0.165],[1],[0],[0],[1.5279429000802338],['target'],P1,001,2024-10-10_19h50.19.137,visual search task,2024.1.5,None,2024-10-10 19h50.31.463487 +0530,
24,0,24,0,42.0081373997964,,41.9526615999639,5,42.0081373997964,42.0081373997964,0.03060920024290681,43.025467600207776,43.54484880017117,[0.065],[0.14],[1],[0],[0],[1.5627328003756702],['target'],P1,001,2024-10-10_19h50.19.137,visual search task,2024.1.5,None,2024-10-10 19h50.31.463487 +0530,
25,0,25,0,43.60478219995275,,43.552694799844176,5,43.60478219995275,43.60478219995275,0.028806100133806467,44.60574179980904,45.39196480019018,[0.435],[-0.13666666666666666],[1],[0],[0],[1.8117142003029585],['target'],P1,001,2024-10-10_19h50.19.137,visual search task,2024.1.5,None,2024-10-10 19h50.31.463487 +0530,
26,0,26,0,45.44190239999443,,45.396515199914575,5,45.44190239999443,45.44190239999443,0.019169900100678205,46.45805979985744,47.3267823997885,[-0.07666666666666666],[-0.3016666666666667],[1],[0],[0],[1.911484899930656],['target'],P1,001,2024-10-10_19h50.19.137,visual search task,2024.1.5,None,2024-10-10 19h50.31.463487 +0530,
27,0,27,0,47.371532400138676,,47.33143460005522,5,47.371532400138676,47.371532400138676,0.017590300180017948,48.38993080006912,48.69475580006838,[0.155],[-0.315],[1],[0],[0],[1.3460368998348713],['target'],P1,001,2024-10-10_19h50.19.137,visual search task,2024.1.5,None,2024-10-10 19h50.31.463487 +0530,
28,0,28,0,48.771425399929285,,48.702688599936664,10,48.771425399929285,48.771425399929285,0.05128719983622432,49.80862609995529,50.54441920015961,[-0.18333333333333332],[0.385],[1],[0],[0],[1.7916967999190092],['target'],P1,001,2024-10-10_19h50.19.137,visual search task,2024.1.5,None,2024-10-10 19h50.31.463487 +0530,
29,0,29,0,50.60516420006752,,50.552223400212824,5,50.60516420006752,50.60516420006752,0.03115489985793829,51.606068999972194,52.059227799996734,[-0.105],[0.39666666666666667],[1],[0],[0],[1.4770650998689234],['target'],P1,001,2024-10-10_19h50.19.137,visual search task,2024.1.5,None,2024-10-10 19h50.31.463487 +0530,
30,0,30,0,52.12479649996385,,52.063833800144494,10,52.12479649996385,52.12479649996385,0.03446590015664697,53.155881700105965,54.341941399965435,[-0.43333333333333335],[-0.3616666666666667],[1],[0],[0],[2.244017200078815],['target'],P1,001,2024-10-10_19h50.19.137,visual search task,2024.1.5,None,2024-10-10 19h50.31.463487 +0530,
31,0,31,0,54.405170400161296,,54.34982350002974,5,54.405170400161296,54.405170400161296,0.030517700128257275,55.442116000223905,55.94745559990406,[-0.075],[-0.395],[1],[0],[0],[1.568169199861586],['target'],P1,001,2024-10-10_19h50.19.137,visual search task,2024.1.5,None,2024-10-10 19h50.31.463487 +0530,
32,0,32,0,56.008447899948806,,55.95537529978901,5,56.008447899948806,56.008447899948806,0.03370899986475706,,56.89419180015102,[-0.11833333333333333],[-0.3983333333333333],[1],[0],[0],[0.9063838999718428],['target'],P1,001,2024-10-10_19h50.19.137,visual search task,2024.1.5,None,2024-10-10 19h50.31.463487 +0530,
33,0,33,0,56.95820200024173,,56.8987747002393,10,56.95820200024173,56.95820200024173,0.0377814001403749,57.97445379989222,58.343109800014645,[-0.31833333333333336],[0.095],[1],[0],[0],[1.4070824002847075],['target'],P1,001,2024-10-10_19h50.19.137,visual search task,2024.1.5,None,2024-10-10 19h50.31.463487 +0530,
34,0,34,0,58.405317599885166,,58.34764790022746,10,58.405317599885166,58.405317599885166,0.03533020010218024,59.441777400206774,59.707484799902886,[-0.26],[0.43166666666666664],[1],[0],[0],[1.325003799982369],['target'],P1,001,2024-10-10_19h50.19.137,visual search task,2024.1.5,None,2024-10-10 19h50.31.463487 +0530,
35,0,35,0,59.757880500052124,,59.71213829983026,5,59.757880500052124,59.757880500052124,0.02004879992455244,60.758047100156546,61.027309800032526,[-0.275],[0.35333333333333333],[1],[0],[0],[1.2954345000907779],['target'],P1,001,2024-10-10_19h50.19.137,visual search task,2024.1.5,None,2024-10-10 19h50.31.463487 +0530,
36,0,36,0,61.105216099880636,,61.03192450013012,10,61.105216099880636,61.105216099880636,0.04977970011532307,62.124275099951774,62.675568900071084,[-0.3],[-0.03],[1],[0],[0],[1.5942632998339832],['target'],P1,001,2024-10-10_19h50.19.137,visual search task,2024.1.5,None,2024-10-10 19h50.31.463487 +0530,
37,0,37,0,62.72488779993728,,62.6801434000954,5,62.72488779993728,62.72488779993728,0.017501200083643198,63.722920999862254,64.37581440014765,[-0.4633333333333333],[-0.15],[1],[0],[0],[1.6785539002157748],['target'],P1,001,2024-10-10_19h50.19.137,visual search task,2024.1.5,None,2024-10-10 19h50.31.463487 +0530,
38,0,38,0,64.42141490010545,,64.3803501999937,5,64.42141490010545,64.42141490010545,0.017629699781537056,65.45921480003744,67.17778339982033,[0.255],[0.42833333333333334],[1],[0],[0],[2.7800759999081492],['target'],P1,001,2024-10-10_19h50.19.137,visual search task,2024.1.5,None,2024-10-10 19h50.31.463487 +0530,
39,0,39,0,67.24147230014205,,67.18575070006773,5,67.24147230014205,67.24147230014205,0.030593200121074915,68.27171659981832,68.61183540010825,[-0.035],[0.035],[1],[0],[0],[1.3965048999525607],['target'],P1,001,2024-10-10_19h50.19.137,visual search task,2024.1.5,None,2024-10-10 19h50.31.463487 +0530,
40,0,40,0,68.67426009988412,,68.61967319995165,5,68.67426009988412,68.67426009988412,0.03162850020453334,69.67307600006461,69.92494169995189,[0.23166666666666666],[-0.36666666666666664],[1],[0],[0],[1.2748320000246167],['target'],P1,001,2024-10-10_19h50.19.137,visual search task,2024.1.5,None,2024-10-10 19h50.31.463487 +0530,
41,0,41,0,69.97479530004784,,69.92950349999592,5,69.97479530004784,69.97479530004784,0.01791949989274144,70.99123369995505,71.12676460016519,[0.023333333333333334],[-0.11166666666666666],[1],[0],[0],[1.1798108001239598],['target'],P1,001,2024-10-10_19h50.19.137,visual search task,2024.1.5,None,2024-10-10 19h50.31.463487 +0530,
42,0,42,0,71.19081880012527,,71.13456510007381,5,71.19081880012527,71.19081880012527,0.030312399845570326,72.18992940010503,72.79125500004739,[-0.4766666666666667],[0.345],[1],[0],[0],[1.6275480003096163],['target'],P1,001,2024-10-10_19h50.19.137,visual search task,2024.1.5,None,2024-10-10 19h50.31.463487 +0530,
43,0,43,0,72.85491310013458,,72.79579439992085,10,72.85491310013458,72.85491310013458,0.03969130013138056,73.89140520012006,74.64154710015282,[-0.4866666666666667],[0.36666666666666664],[1],[0],[0],[1.8063266999088228],['target'],P1,001,2024-10-10_19h50.19.137,visual search task,2024.1.5,None,2024-10-10 19h50.31.463487 +0530,
44,0,44,0,74.71862370008603,,74.64954929985106,10,74.71862370008603,74.71862370008603,0.05412099976092577,75.74259639997035,75.92957969987765,[-0.3416666666666667],[-0.265],[1],[0],[0],[1.227053300011903],['target'],P1,001,2024-10-10_19h50.19.137,visual search task,2024.1.5,None,2024-10-10 19h50.31.463487 +0530,
45,0,45,0,75.97264060005546,,75.93424310022965,5,75.97264060005546,75.97264060005546,0.021488099824637175,76.97435319982469,77.69281250005588,[-0.275],[-0.105],[1],[0],[0],[1.737652299925685],['target'],P1,001,2024-10-10_19h50.19.137,visual search task,2024.1.5,None,2024-10-10 19h50.31.463487 +0530,
46,0,46,0,77.74162039998919,,77.69739039987326,5,77.74162039998919,77.74162039998919,0.017321299761533737,78.75858960021287,79.27988079981878,[0.27],[-0.08333333333333333],[1],[0],[0],[1.5654282998293638],['target'],P1,001,2024-10-10_19h50.19.137,visual search task,2024.1.5,None,2024-10-10 19h50.31.463487 +0530,
47,0,47,0,79.37171729980037,,79.2880290998146,10,79.37171729980037,79.37171729980037,0.05779230035841465,80.38838100014254,81.07626130012795,[-0.13833333333333334],[0.48833333333333334],[1],[0],[0],[1.7319294000044465],['target'],P1,001,2024-10-10_19h50.19.137,visual search task,2024.1.5,None,2024-10-10 19h50.31.463487 +0530,
48,0,48,0,81.14148599980399,,81.0808505997993,10,81.14148599980399,81.14148599980399,0.03653729986399412,82.15917370002717,82.64862689981237,[0.29833333333333334],[0.4],[1],[0],[0],[1.531541199889034],['target'],P1,001,2024-10-10_19h50.19.137,visual search task,2024.1.5,None,2024-10-10 19h50.31.463487 +0530,
49,0,49,0,82.71071839984506,,82.65650259982795,5,82.71071839984506,82.71071839984506,0.030193500220775604,83.73863490018994,83.9454414001666,[0.10333333333333333],[0.32666666666666666],[1],[0],[0],[1.259828600101173],['target'],P1,001,2024-10-10_19h50.19.137,visual search task,2024.1.5,None,2024-10-10 19h50.31.463487 +0530,
50,0,50,0,84.00793999992311,,83.95322899986058,5,84.00793999992311,84.00793999992311,0.030506300274282694,85.024954599794,85.64228329993784,[0.0033333333333333335],[0.09666666666666666],[1],[0],[0],[1.6597712999209762],['target'],P1,001,2024-10-10_19h50.19.137,visual search task,2024.1.5,None,2024-10-10 19h50.31.463487 +0530,
51,0,51,0,85.70507110003382,,85.64687839988619,10,85.70507110003382,85.70507110003382,0.03744360012933612,86.74167220015079,86.97688109986484,[-0.10666666666666667],[-0.215],[1],[0],[0],[1.292821199633181],['target'],P1,001,2024-10-10_19h50.19.137,visual search task,2024.1.5,None,2024-10-10 19h50.31.463487 +0530,
52,0,52,0,87.03848430002108,,86.98483960004523,5,87.03848430002108,87.03848430002108,0.032726199831813574,88.04164890013635,88.24279160005972,[-0.16166666666666665],[-0.275],[1],[0],[0],[1.2264489000663161],['target'],P1,001,2024-10-10_19h50.19.137,visual search task,2024.1.5,None,2024-10-10 19h50.31.463487 +0530,
53,0,53,0,88.28879849985242,,88.2473389999941,5,88.28879849985242,88.28879849985242,0.01878279959782958,89.29221210023388,89.55829290021211,[-0.19166666666666668],[-0.015],[1],[0],[0],[1.2923746001906693],['target'],P1,001,2024-10-10_19h50.19.137,visual search task,2024.1.5,None,2024-10-10 19h50.31.463487 +0530,
54,0,54,0,89.60793460020795,,89.56282830005512,5,89.60793460020795,89.60793460020795,0.018902000039815903,90.62485289992765,90.925029899925,[-0.3616666666666667],[0.18666666666666668],[1],[0],[0],[1.3437984995543957],['target'],P1,001,2024-10-10_19h50.19.137,visual search task,2024.1.5,None,2024-10-10 19h50.31.463487 +0530,
55,0,55,0,90.97495480021462,,90.92963480018079,5,90.97495480021462,90.97495480021462,0.019070199690759182,91.99170190002769,92.26038359990343,[-0.04],[0.36833333333333335],[1],[0],[0],[1.3121480997651815],['target'],P1,001,2024-10-10_19h50.19.137,visual search task,2024.1.5,None,2024-10-10 19h50.31.463487 +0530,
56,0,56,0,92.32206249982119,,92.26505139982328,10,92.32206249982119,92.32206249982119,0.04019170021638274,93.35847060009837,93.8432777998969,[0.065],[-0.023333333333333334],[1],[0],[0],[1.5384946996346116],['target'],P1,001,2024-10-10_19h50.19.137,visual search task,2024.1.5,None,2024-10-10 19h50.31.463487 +0530,
57,0,57,0,93.88828680012375,,93.84785610018298,5,93.88828680012375,93.88828680012375,0.01961479987949133,94.89234630018473,95.67511129984632,[-0.38],[0.43],[1],[0],[0],[1.8077220004051924],['target'],P1,001,2024-10-10_19h50.19.137,visual search task,2024.1.5,None,2024-10-10 19h50.31.463487 +0530,
58,0,58,0,95.74248869996518,,95.67988969990984,10,95.74248869996518,95.74248869996518,0.03898930037394166,96.77131420001388,97.2253799000755,[-0.4066666666666667],[0.4666666666666667],[1],[0],[0],[1.5067853000946343],['target'],P1,001,2024-10-10_19h50.19.137,visual search task,2024.1.5,None,2024-10-10 19h50.31.463487 +0530,
59,0,59,0,97.28840410010889,,97.23335780017078,5,97.28840410010889,97.28840410010889,0.030024300329387188,98.29383639991283,98.8577164998278,[0.13333333333333333],[-0.16666666666666666],[1],[0],[0],[1.595671399962157],['target'],P1,001,2024-10-10_19h50.19.137,visual search task,2024.1.5,None,2024-10-10 19h50.31.463487 +0530,
60,0,60,0,98.9055441999808,,98.86224489985034,5,98.9055441999808,98.9055441999808,0.019129800144582987,99.92457369994372,100.20974209997803,[-0.46166666666666667],[0.25166666666666665],[1],[0],[0],[1.3288603001274168],['target'],P1,001,2024-10-10_19h50.19.137,visual search task,2024.1.5,None,2024-10-10 19h50.31.463487 +0530,
61,0,61,0,100.25484069995582,,100.21425070008263,5,100.25484069995582,100.25484069995582,0.019461299758404493,101.25789579981938,101.89616480004042,[-0.49666666666666665],[0.225],[1],[0],[0],[1.6628302996978164],['target'],P1,001,2024-10-10_19h50.19.137,visual search task,2024.1.5,None,2024-10-10 19h50.31.463487 +0530,
62,0,62,0,101.93887550011277,,101.90084510017186,5,101.93887550011277,101.93887550011277,0.020590899977833033,102.94101539999247,103.40703570004553,[0.25166666666666665],[-0.4483333333333333],[1],[0],[0],[1.4861699999310076],['target'],P1,001,2024-10-10_19h50.19.137,visual search task,2024.1.5,None,2024-10-10 19h50.31.463487 +0530,
63,0,63,0,103.45483550010249,,103.41148599982262,5,103.45483550010249,103.45483550010249,0.017900599632412195,104.47164010023698,104.89068889990449,[0.195],[0.305],[1],[0],[0],[1.4615144999697804],['target'],P1,001,2024-10-10_19h50.19.137,visual search task,2024.1.5,None,2024-10-10 19h50.31.463487 +0530,
64,0,64,0,104.95516260014847,,104.89843269996345,5,104.95516260014847,104.95516260014847,0.032658500131219625,105.99175779987127,106.54422619985417,[-0.3233333333333333],[-0.315],[1],[0],[0],[1.6141944001428783],['target'],P1,001,2024-10-10_19h50.19.137,visual search task,2024.1.5,None,2024-10-10 19h50.31.463487 +0530,
65,0,65,0,106.60486749978736,,106.552133299876,5,106.60486749978736,106.60486749978736,0.030544799752533436,107.62501280009747,108.99148199986666,[-0.20333333333333334],[-0.44],[1],[0],[0],[2.410034699831158],['target'],P1,001,2024-10-10_19h50.19.137,visual search task,2024.1.5,None,2024-10-10 19h50.31.463487 +0530,
66,0,66,0,109.05351680004969,,108.99610310001299,10,109.05351680004969,109.05351680004969,0.04068259987980127,110.05736909992993,110.90796989994124,[-0.45],[0.09833333333333333],[1],[0],[0],[1.8714713002555072],['target'],P1,001,2024-10-10_19h50.19.137,visual search task,2024.1.5,None,2024-10-10 19h50.31.463487 +0530,
67,0,67,0,110.9609352000989,,110.91578890010715,5,110.9609352000989,110.9609352000989,0.031248999759554863,111.97309800004587,112.2563673001714,[-0.435],[0.3016666666666667],[1],[0],[0],[1.310321000404656],['target'],P1,001,2024-10-10_19h50.19.137,visual search task,2024.1.5,None,2024-10-10 19h50.31.463487 +0530,
68,0,68,0,112.31003630021587,,112.26444770023227,5,112.31003630021587,112.31003630021587,0.033054699655622244,113.32289840001613,113.90801260014996,[-0.016666666666666666],[0.43833333333333335],[1],[0],[0],[1.611484399996698],['target'],P1,001,2024-10-10_19h50.19.137,visual search task,2024.1.5,None,2024-10-10 19h50.31.463487 +0530,
69,0,69,0,113.9872829997912,,113.91605720017105,10,113.9872829997912,113.9872829997912,0.055231899954378605,114.98875930020586,115.72402149997652,[0.39],[0.43],[1],[0],[0],[1.753813600167632],['target'],P1,001,2024-10-10_19h50.19.137,visual search task,2024.1.5,None,2024-10-10 19h50.31.463487 +0530,
70,0,70,0,115.77967729978263,,115.73222520016134,5,115.77967729978263,115.77967729978263,0.03329190006479621,116.79140939982608,117.94169639982283,[0.22333333333333333],[0.065],[1],[0],[0],[2.1774341999553144],['target'],P1,001,2024-10-10_19h50.19.137,visual search task,2024.1.5,None,2024-10-10 19h50.31.463487 +0530,
71,0,71,0,117.99548219982535,,117.94630199996755,10,117.99548219982535,117.99548219982535,0.03488099994137883,119.02208730019629,120.42317340010777,[0.46166666666666667],[-0.22333333333333333],[1],[0],[0],[2.442307500168681],['target'],P1,001,2024-10-10_19h50.19.137,visual search task,2024.1.5,None,2024-10-10 19h50.31.463487 +0530,
72,0,72,0,120.4757069000043,,120.43101199995726,5,120.4757069000043,120.4757069000043,0.030890800058841705,121.52082289988175,122.44359649997205,[0.37333333333333335],[-0.38],[1],[0],[0],[1.9828156000003219],['target'],P1,001,2024-10-10_19h50.19.137,visual search task,2024.1.5,None,2024-10-10 19h50.31.463487 +0530,
73,0,73,0,122.48900250019506,,122.44818249996752,5,122.48900250019506,122.48900250019506,0.03000639984384179,123.50478610023856,123.96432759985328,[-0.365],[-0.245],[1],[0],[0],[1.4865256999619305],['target'],P1,001,2024-10-10_19h50.19.137,visual search task,2024.1.5,None,2024-10-10 19h50.31.463487 +0530,
74,0,74,0,124.01683320011944,,123.97214150009677,5,124.01683320011944,124.01683320011944,0.03000870021060109,125.02310940017924,125.67604340007529,[-0.105],[0.05333333333333334],[1],[0],[0],[1.6748723997734487],['target'],P1,001,2024-10-10_19h50.19.137,visual search task,2024.1.5,None,2024-10-10 19h50.31.463487 +0530,
75,0,75,0,125.74549419991672,,125.68382220016792,10,125.74549419991672,125.74549419991672,0.0477590998634696,126.75571299996227,127.93944580014795,[0.051666666666666666],[-0.30833333333333335],[1],[0],[0],[2.2089281999506056],['target'],P1,001,2024-10-10_19h50.19.137,visual search task,2024.1.5,None,2024-10-10 19h50.31.463487 +0530,
76,0,76,0,127.99339850014076,,127.94741619983688,5,127.99339850014076,127.99339850014076,0.03168500028550625,129.0057808002457,129.99158400017768,[0.20333333333333334],[0.39],[1],[0],[0],[2.0136056998744607],['target'],P1,001,2024-10-10_19h50.19.137,visual search task,2024.1.5,None,2024-10-10 19h50.31.463487 +0530,
77,0,77,0,130.05019410001114,,129.99941299995407,10,130.05019410001114,130.05019410001114,0.037962500005960464,131.05564149981365,132.2738363002427,[-0.075],[0.49166666666666664],[1],[0],[0],[2.2377585996873677],['target'],P1,001,2024-10-10_19h50.19.137,visual search task,2024.1.5,None,2024-10-10 19h50.31.463487 +0530,
78,0,78,0,132.32726900000125,,132.27836770005524,10,132.32726900000125,132.32726900000125,0.03514089994132519,133.33857899997383,133.556483999826,[-0.006666666666666667],[0.48333333333333334],[1],[0],[0],[1.2435175999999046],['target'],P1,001,2024-10-10_19h50.19.137,visual search task,2024.1.5,None,2024-10-10 19h50.31.463487 +0530,
79,0,79,0,133.60965509992093,,133.56098530022427,10,133.60965509992093,133.60965509992093,0.034986999817192554,134.63759599998593,135.34049159986898,[0.345],[0.29],[1],[0],[0],[1.7450436996296048],['target'],P1,001,2024-10-10_19h50.19.137,visual search task,2024.1.5,None,2024-10-10 19h50.31.463487 +0530,
80,0,80,0,135.37458800012246,,135.34504690021276,5,135.37458800012246,135.37458800012246,0.01976320007815957,136.3897218001075,137.72446760023013,[-0.48333333333333334],[-0.18166666666666667],[1],[0],[0],[2.360085899941623],['target'],P1,001,2024-10-10_19h50.19.137,visual search task,2024.1.5,None,2024-10-10 19h50.31.463487 +0530,
81,0,81,0,137.7995227999054,,137.7323532998562,10,137.7995227999054,137.7995227999054,0.053692299872636795,138.83753699995577,139.22308540018275,[-0.27],[0.006666666666666667],[1],[0],[0],[1.4382382002659142],['target'],P1,001,2024-10-10_19h50.19.137,visual search task,2024.1.5,None,2024-10-10 19h50.31.463487 +0530,
82,0,82,0,139.27699809987098,,139.2277325000614,10,139.27699809987098,139.27699809987098,0.03510560002177954,140.2886777999811,140.35796089982614,[-0.30333333333333334],[0.16833333333333333],[1],[0],[0],[1.0955615998245776],['target'],P1,001,2024-10-10_19h50.19.137,visual search task,2024.1.5,None,2024-10-10 19h50.31.463487 +0530,
83,0,83,0,140.4142057998106,,140.3627069001086,10,140.4142057998106,140.4142057998106,0.03617289988324046,141.43812290020287,141.5576614998281,[0.26166666666666666],[0.385],[1],[0],[0],[1.1592677002772689],['target'],P1,001,2024-10-10_19h50.19.137,visual search task,2024.1.5,None,2024-10-10 19h50.31.463487 +0530,
84,0,84,0,141.61073949979618,,141.5622219000943,10,141.61073949979618,141.61073949979618,0.03486909996718168,142.65447989990935,143.02443580003455,[-0.14666666666666667],[0.48],[1],[0],[0],[1.4275907999835908],['target'],P1,001,2024-10-10_19h50.19.137,visual search task,2024.1.5,None,2024-10-10 19h50.31.463487 +0530,
85,0,85,0,143.1029066001065,,143.03247810015455,10,143.1029066001065,143.1029066001065,0.05701990006491542,144.12112119980156,144.67238319991156,[0.4633333333333333],[0.021666666666666667],[1],[0],[0],[1.584113399963826],['target'],P1,001,2024-10-10_19h50.19.137,visual search task,2024.1.5,None,2024-10-10 19h50.31.463487 +0530,
86,0,86,0,144.7181309000589,,144.67875429987907,5,144.7181309000589,144.7181309000589,0.030767099931836128,145.7217387999408,145.94164330000058,[-0.245],[0.05333333333333334],[1],[0],[0],[1.2333406996913254],['target'],P1,001,2024-10-10_19h50.19.137,visual search task,2024.1.5,None,2024-10-10 19h50.31.463487 +0530,
87,0,87,0,145.9758892999962,,145.94653230020776,5,145.9758892999962,145.9758892999962,0.019772800151258707,146.98928270023316,147.5260013001971,[-0.4633333333333333],[-0.305],[1],[0],[0],[1.560020700097084],['target'],P1,001,2024-10-10_19h50.19.137,visual search task,2024.1.5,None,2024-10-10 19h50.31.463487 +0530,
88,0,88,0,147.60475709987804,,147.5338976001367,10,147.60475709987804,147.60475709987804,0.05674399994313717,148.62215649988502,149.273773400113,[-0.39666666666666667],[-0.4033333333333333],[1],[0],[0],[1.6844112002290785],['target'],P1,001,2024-10-10_19h50.19.137,visual search task,2024.1.5,None,2024-10-10 19h50.31.463487 +0530,
89,0,89,0,149.30657269991934,,149.2783547998406,5,149.30657269991934,149.30657269991934,0.01955570001155138,150.30532199982554,151.3082989999093,[0.06333333333333334],[0.3883333333333333],[1],[0],[0],[2.0107855000533164],['target'],P1,001,2024-10-10_19h50.19.137,visual search task,2024.1.5,None,2024-10-10 19h50.31.463487 +0530,
90,0,90,0,151.33944710018113,,151.3127958001569,5,151.33944710018113,151.33944710018113,0.017921799793839455,152.3565938998945,153.47427430003881,[0.385],[0.23166666666666666],[1],[0],[0],[2.1439294000156224],['target'],P1,001,2024-10-10_19h50.19.137,visual search task,2024.1.5,None,2024-10-10 19h50.31.463487 +0530,
91,0,91,0,153.5501549001783,,153.48206439986825,10,153.5501549001783,153.5501549001783,0.05457670008763671,154.57136109983549,155.30674300016835,[-0.19833333333333333],[-0.05333333333333334],[1],[0],[0],[1.7713277000002563],['target'],P1,001,2024-10-10_19h50.19.137,visual search task,2024.1.5,None,2024-10-10 19h50.31.463487 +0530,
92,0,92,0,155.33937190007418,,155.31138310022652,5,155.33937190007418,155.33937190007418,0.019451499916613102,156.37371159996837,157.19106910005212,[-0.02],[0.09333333333333334],[1],[0],[0],[1.8605917999520898],['target'],P1,001,2024-10-10_19h50.19.137,visual search task,2024.1.5,None,2024-10-10 19h50.31.463487 +0530,
93,0,93,0,157.26598640019074,,157.19881549989805,10,157.26598640019074,157.26598640019074,0.05438219988718629,158.28876380017027,158.98938379995525,[-0.3383333333333333],[0.34],[1],[0],[0],[1.7372592999599874],['target'],P1,001,2024-10-10_19h50.19.137,visual search task,2024.1.5,None,2024-10-10 19h50.31.463487 +0530,
94,0,94,0,159.05344610009342,,158.99719560006633,10,159.05344610009342,159.05344610009342,0.043156000319868326,160.07106560003012,163.67293330002576,[0.49],[-0.2816666666666667],[1],[0],[0],[4.633607599884272],['target'],P1,001,2024-10-10_19h50.19.137,visual search task,2024.1.5,None,2024-10-10 19h50.31.463487 +0530,
95,0,95,0,163.72229760000482,,163.68073920020834,5,163.72229760000482,163.72229760000482,0.028429100289940834,164.7228048001416,165.40933480020612,[0.475],[-0.041666666666666664],[1],[0],[0],[1.7012751000002027],['target'],P1,001,2024-10-10_19h50.19.137,visual search task,2024.1.5,None,2024-10-10 19h50.31.463487 +0530,
96,0,96,0,165.46164140012115,,165.413840000052,10,165.46164140012115,165.46164140012115,0.033518699929118156,166.47304339986295,167.40622169990093,[-0.36833333333333335],[0.20833333333333334],[1],[0],[0],[1.9594031004235148],['target'],P1,001,2024-10-10_19h50.19.137,visual search task,2024.1.5,None,2024-10-10 19h50.31.463487 +0530,
97,0,97,0,167.46197370020673,,167.4109276998788,10,167.46197370020673,167.46197370020673,0.03633449971675873,168.4717469001189,169.0899931001477,[0.355],[0.2633333333333333],[1],[0],[0],[1.6433129999786615],['target'],P1,001,2024-10-10_19h50.19.137,visual search task,2024.1.5,None,2024-10-10 19h50.31.463487 +0530,
98,0,98,0,169.14392760023475,,169.0945775997825,10,169.14392760023475,169.14392760023475,0.03573990007862449,170.15585809992626,171.5235383999534,[0.45166666666666666],[-0.175],[1],[0],[0],[2.3936910000629723],[],P1,001,2024-10-10_19h50.19.137,visual search task,2024.1.5,None,2024-10-10 19h50.31.463487 +0530,
99,0,99,0,171.57840149989352,,171.52810019999743,10,171.57840149989352,171.57840149989352,0.03658950002864003,172.5884004002437,173.17308259988204,[-0.4066666666666667],[-0.06],[1],[0],[0],[1.6089415000751615],['target'],P1,001,2024-10-10_19h50.19.137,visual search task,2024.1.5,None,2024-10-10 19h50.31.463487 +0530,
100,0,100,0,173.22886720020324,,173.17774089984596,10,173.22886720020324,173.22886720020324,0.03689800016582012,174.27123330021277,174.96764340018854,[-0.23166666666666666],[-0.16166666666666665],[1],[0],[0],[1.7534552998840809],['target'],P1,001,2024-10-10_19h50.19.137,visual search task,2024.1.5,None,2024-10-10 19h50.31.463487 +0530,
101,0,101,0,177.04675790015608,,174.97239670017734,10,177.04675790015608,177.04675790015608,0.5965164001099765,178.14252470014617,179.72772159986198,[0.41],[0.47],[1],[0],[0],[4.158848599996418],['target'],P1,001,2024-10-10_19h50.19.137,visual search task,2024.1.5,None,2024-10-10 19h50.31.463487 +0530,
102,0,102,0,179.78061209991574,,179.73586500016972,5,179.78061209991574,179.78061209991574,0.030736099928617477,180.8058686000295,181.41072320006788,[0.31],[0.21333333333333335],[1],[0],[0],[1.6450229999609292],['target'],P1,001,2024-10-10_19h50.19.137,visual search task,2024.1.5,None,2024-10-10 19h50.31.463487 +0530,
103,0,103,0,181.45816069981083,,181.41730679990724,5,181.45816069981083,181.45816069981083,0.02856580028310418,182.47286630002782,182.5404550000094,[0.165],[0.46166666666666667],[1],[0],[0],[1.0955457999370992],['target'],P1,001,2024-10-10_19h50.19.137,visual search task,2024.1.5,None,2024-10-10 19h50.31.463487 +0530,
104,0,104,0,182.6150960000232,,182.54702749988064,10,182.6150960000232,182.6150960000232,0.04997819988057017,183.63797370018438,184.0729630999267,[-0.165],[-0.06333333333333334],[1],[0],[0],[1.4766297000460327],['target'],P1,001,2024-10-10_19h50.19.137,visual search task,2024.1.5,None,2024-10-10 19h50.31.463487 +0530,
105,0,105,0,184.1240479000844,,184.08092590002343,5,184.1240479000844,184.1240479000844,0.03033450013026595,185.15591620001942,185.49358120001853,[0.325],[0.19833333333333333],[1],[0],[0],[1.383397199679166],['target'],P1,001,2024-10-10_19h50.19.137,visual search task,2024.1.5,None,2024-10-10 19h50.31.463487 +0530,
106,0,106,0,185.5438528000377,,185.50158869987354,5,185.5438528000377,185.5438528000377,0.030552399810403585,186.5709433001466,187.089624799788,[-0.0033333333333333335],[0.125],[1],[0],[0],[1.558576500043273],['target'],P1,001,2024-10-10_19h50.19.137,visual search task,2024.1.5,None,2024-10-10 19h50.31.463487 +0530,
107,0,107,0,187.14191329991445,,187.0977055998519,5,187.14191329991445,187.14191329991445,0.030760399997234344,188.1728440001607,188.49089770019054,[0.26166666666666666],[0.041666666666666664],[1],[0],[0],[1.3638162999413908],['target'],P1,001,2024-10-10_19h50.19.137,visual search task,2024.1.5,None,2024-10-10 19h50.31.463487 +0530,
108,0,108,0,188.54116629995406,,188.49918150017038,5,188.54116629995406,188.54116629995406,0.030780899804085493,189.55724669992924,189.8588204998523,[-0.345],[-0.06666666666666667],[1],[0],[0],[1.3299434003420174],['target'],P1,001,2024-10-10_19h50.19.137,visual search task,2024.1.5,None,2024-10-10 19h50.31.463487 +0530,
109,0,109,0,189.93960200017318,,189.86653609992936,10,189.93960200017318,189.93960200017318,0.05408760020509362,190.9711350002326,191.54054930014536,[-0.3233333333333333],[0.4166666666666667],[1],[0],[0],[1.6209521000273526],['target'],P1,001,2024-10-10_19h50.19.137,visual search task,2024.1.5,None,2024-10-10 19h50.31.463487 +0530,
110,0,110,0,191.59368079993874,,191.54849450010806,5,191.59368079993874,191.59368079993874,0.031521799974143505,192.62114429986104,193.17440610006452,[0.018333333333333333],[-0.3283333333333333],[1],[0],[0],[1.5954982000403106],['target'],P1,001,2024-10-10_19h50.19.137,visual search task,2024.1.5,None,2024-10-10 19h50.31.463487 +0530,
111,0,111,0,193.22458150004968,,193.18226640019566,5,193.22458150004968,193.22458150004968,0.03085620002821088,194.23914870014414,194.80953240022063,[-0.43833333333333335],[0.19666666666666666],[1],[0],[0],[1.5974586997181177],['target'],P1,001,2024-10-10_19h50.19.137,visual search task,2024.1.5,None,2024-10-10 19h50.31.463487 +0530,
112,0,112,0,194.89009829983115,,194.81744079990312,10,194.89009829983115,194.89009829983115,0.05454380018636584,195.92135399999097,196.75608169985935,[0.4716666666666667],[-0.18333333333333332],[1],[0],[0],[1.8851480996236205],[],P1,001,2024-10-10_19h50.19.137,visual search task,2024.1.5,None,2024-10-10 19h50.31.463487 +0530,
113,0,113,0,196.84047870012,,196.76411730004475,10,196.84047870012,196.84047870012,0.057202800177037716,197.87128710001707,198.07279819995165,[0.295],[0.11833333333333333],[1],[0],[0],[1.252516399603337],['target'],P1,001,2024-10-10_19h50.19.137,visual search task,2024.1.5,None,2024-10-10 19h50.31.463487 +0530,
114,0,114,0,198.12437669979408,,198.0808097999543,5,198.12437669979408,198.12437669979408,0.03004440013319254,199.15447349986061,199.52574469987303,[0.18],[-0.03333333333333333],[1],[0],[0],[1.41589289996773],['target'],P1,001,2024-10-10_19h50.19.137,visual search task,2024.1.5,None,2024-10-10 19h50.31.463487 +0530,
115,0,115,0,199.60670460015535,,199.5335936001502,10,199.60670460015535,199.60670460015535,0.05494809988886118,200.63751929998398,201.37254829984158,[-0.19],[-0.06833333333333333],[1],[0],[0],[1.7851545000448823],['target'],P1,001,2024-10-10_19h50.19.137,visual search task,2024.1.5,None,2024-10-10 19h50.31.463487 +0530,
116,0,116,0,201.41657860018313,,201.37897810013965,5,201.41657860018313,201.41657860018313,0.025541499722748995,202.4227803000249,202.7259070998989,[0.32],[-0.165],[1],[0],[0],[1.3221245002932847],['target'],P1,001,2024-10-10_19h50.19.137,visual search task,2024.1.5,None,2024-10-10 19h50.31.463487 +0530,
117,0,117,0,202.80878870002925,,202.7337410999462,10,202.80878870002925,202.80878870002925,0.05625750031322241,203.83785220002756,204.5756235998124,[0.4533333333333333],[0.47],[1],[0],[0],[1.786757499910891],['target'],P1,001,2024-10-10_19h50.19.137,visual search task,2024.1.5,None,2024-10-10 19h50.31.463487 +0530,
118,0,118,0,204.63940710015595,,204.58224469982088,5,204.63940710015595,204.63940710015595,0.030270700342953205,205.6546292998828,206.1076711998321,[0.18833333333333332],[-0.35333333333333333],[1],[0],[0],[1.4959041001275182],['target'],P1,001,2024-10-10_19h50.19.137,visual search task,2024.1.5,None,2024-10-10 19h50.31.463487 +0530,
119,0,119,0,206.18839270016178,,206.11560809984803,10,206.18839270016178,206.18839270016178,0.05379140004515648,207.22139189997688,207.70595199987292,[-0.225],[-0.016666666666666666],[1],[0],[0],[1.5375958001241088],['target'],P1,001,2024-10-10_19h50.19.137,visual search task,2024.1.5,None,2024-10-10 19h50.31.463487 +0530,
120,0,120,0,207.7573039000854,,207.713762300089,5,207.7573039000854,207.7573039000854,0.030117100104689598,208.77244079997763,209.3409918998368,[0.2916666666666667],[-0.48],[1],[0],[0],[1.5981669998727739],['target'],P1,001,2024-10-10_19h50.19.137,visual search task,2024.1.5,None,2024-10-10 19h50.31.463487 +0530,
121,0,121,0,209.39386440021917,,209.3490891000256,5,209.39386440021917,209.39386440021917,0.03139990009367466,210.43944549979642,210.92440050002187,[0.23166666666666666],[-0.31],[1],[0],[0],[1.5449280999600887],['target'],P1,001,2024-10-10_19h50.19.137,visual search task,2024.1.5,None,2024-10-10 19h50.31.463487 +0530,
122,0,122,0,210.9744322001934,,210.9321349002421,5,210.9744322001934,210.9744322001934,0.02892519999295473,211.9894873998128,212.5581172001548,[-0.23],[0.20833333333333334],[1],[0],[0],[1.5980851999484003],['target'],P1,001,2024-10-10_19h50.19.137,visual search task,2024.1.5,None,2024-10-10 19h50.31.463487 +0530,
123,0,123,0,212.63579329987988,,212.5662619001232,10,212.63579329987988,212.63579329987988,0.05170209985226393,213.67099739983678,214.3736291998066,[0.3466666666666667],[0.14166666666666666],[1],[0],[0],[1.7569943997077644],['target'],P1,001,2024-10-10_19h50.19.137,visual search task,2024.1.5,None,2024-10-10 19h50.31.463487 +0530,
124,0,124,0,214.45611699996516,,214.3815379999578,10,214.45611699996516,214.45611699996516,0.05655360035598278,215.48781869979575,216.18958339979872,[-0.12166666666666667],[-0.4033333333333333],[1],[0],[0],[1.7524534999392927],['target'],P1,001,2024-10-10_19h50.19.137,visual search task,2024.1.5,None,2024-10-10 19h50.31.463487 +0530,
125,0,125,0,216.27692579990253,,216.1974575999193,10,216.27692579990253,216.27692579990253,0.05963160004466772,217.30429290002212,217.60604300023988,[-0.21833333333333332],[-0.06666666666666667],[1],[0],[0],[1.3500467999838293],['target'],P1,001,2024-10-10_19h50.19.137,visual search task,2024.1.5,None,2024-10-10 19h50.31.463487 +0530,
126,0,126,0,217.69194399984553,,217.61381819983944,10,217.69194399984553,217.69194399984553,0.060007099993526936,218.72121659992263,219.29001040011644,[-0.44],[-0.25666666666666665],[1],[0],[0],[1.6172851002775133],['target'],P1,001,2024-10-10_19h50.19.137,visual search task,2024.1.5,None,2024-10-10 19h50.31.463487 +0530,
127,0,127,0,219.3602868001908,,219.2966273999773,10,219.3602868001908,219.3602868001908,0.046299700159579515,220.38765909988433,220.98943219985813,[0.145],[0.07333333333333333],[1],[0],[0],[1.6474929000250995],['target'],P1,001,2024-10-10_19h50.19.137,visual search task,2024.1.5,None,2024-10-10 19h50.31.463487 +0530,
128,0,128,0,221.07521940022707,,220.99722399981692,10,221.07521940022707,221.07521940022707,0.0568444998934865,222.10408509988338,224.07291659992188,[0.07666666666666666],[0.42],[1],[0],[0],[3.0198617996647954],['target'],P1,001,2024-10-10_19h50.19.137,visual search task,2024.1.5,None,2024-10-10 19h50.31.463487 +0530,
129,0,129,0,224.1233924999833,,224.08080680016428,5,224.1233924999833,224.1233924999833,0.02959870034828782,225.15432270010933,226.3907391000539,[0.3883333333333333],[0.35833333333333334],[1],[0],[0],[2.2813456999137998],['target'],P1,001,2024-10-10_19h50.19.137,visual search task,2024.1.5,None,2024-10-10 19h50.31.463487 +0530,
130,0,130,0,226.44161000009626,,226.39858550019562,5,226.44161000009626,226.44161000009626,0.029383200220763683,227.45664170011878,228.67236529989168,[0.07166666666666667],[-0.3616666666666667],[1],[0],[0],[2.2454833001829684],['target'],P1,001,2024-10-10_19h50.19.137,visual search task,2024.1.5,None,2024-10-10 19h50.31.463487 +0530,
131,0,131,0,228.75049040000886,,228.67894000001252,10,228.75049040000886,228.75049040000886,0.049348000437021255,229.77111920015886,230.3724560001865,[0.325],[0.25166666666666665],[1],[0],[0],[1.6448988998308778],['target'],P1,001,2024-10-10_19h50.19.137,visual search task,2024.1.5,None,2024-10-10 19h50.31.463487 +0530,
132,0,132,0,230.45799800008535,,230.38059120019898,10,230.45799800008535,230.45799800008535,0.058078800328075886,231.4878056999296,231.79036419978365,[0.315],[0.27166666666666667],[1],[0],[0],[1.352735800202936],['target'],P1,001,2024-10-10_19h50.19.137,visual search task,2024.1.5,None,2024-10-10 19h50.31.463487 +0530,
133,0,133,0,231.83799919998273,,231.79823220008984,5,231.83799919998273,231.83799919998273,0.02831309987232089,232.83897010004148,234.04094259999692,[-0.29],[0.27666666666666667],[1],[0],[0],[2.2154703000560403],['target'],P1,001,2024-10-10_19h50.19.137,visual search task,2024.1.5,None,2024-10-10 19h50.31.463487 +0530,
134,0,134,0,234.09263009997085,,234.04866580013186,5,234.09263009997085,234.09263009997085,0.030360300093889236,235.1061817998998,235.57382370019332,[-0.3983333333333333],[0.20333333333333334],[1],[0],[0],[1.495867000427097],['target'],P1,001,2024-10-10_19h50.19.137,visual search task,2024.1.5,None,2024-10-10 19h50.31.463487 +0530,
135,0,135,0,235.6553631001152,,235.58156110020354,10,235.6553631001152,235.6553631001152,0.055819999892264605,236.68769960012287,237.2575892000459,[0.06833333333333333],[-0.25833333333333336],[1],[0],[0],[1.6212295000441372],['target'],P1,001,2024-10-10_19h50.19.137,visual search task,2024.1.5,None,2024-10-10 19h50.31.463487 +0530,
136,0,136,0,237.3460432002321,,237.26545049995184,10,237.3460432002321,237.3460432002321,0.059972400311380625,238.37093820003793,239.07301460020244,[0.27],[0.06333333333333334],[1],[0],[0],[1.7486067996360362],['target'],P1,001,2024-10-10_19h50.19.137,visual search task,2024.1.5,None,2024-10-10 19h50.31.463487 +0530,
137,0,137,0,239.15785170020536,,239.08098920015618,10,239.15785170020536,239.15785170020536,0.05806959979236126,240.18756419979036,240.72425119997934,[0.365],[0.49],[1],[0],[0],[1.5862675001844764],['target'],P1,001,2024-10-10_19h50.19.137,visual search task,2024.1.5,None,2024-10-10 19h50.31.463487 +0530,
138,0,138,0,240.77389959990978,,240.73206239985302,5,240.77389959990978,240.77389959990978,0.02990050008520484,241.80473039997742,242.34216960007325,[-0.11333333333333333],[-0.28],[1],[0],[0],[1.581141899805516],['target'],P1,001,2024-10-10_19h50.19.137,visual search task,2024.1.5,None,2024-10-10 19h50.31.463487 +0530,
139,0,139,0,242.39499690011144,,242.35007169982418,5,242.39499690011144,242.39499690011144,0.031286200042814016,243.40597089985386,244.05908149993047,[-0.36833333333333335],[-0.07166666666666667],[1],[0],[0],[1.6787715000100434],['target'],P1,001,2024-10-10_19h50.19.137,visual search task,2024.1.5,None,2024-10-10 19h50.31.463487 +0530,
140,0,140,0,244.10648680012673,,244.06678909994662,5,244.10648680012673,244.10648680012673,0.028552399948239326,245.1227505998686,246.32672209991142,[-0.14666666666666667],[-0.29],[1],[0],[0],[2.2323583997786045],['target'],P1,001,2024-10-10_19h50.19.137,visual search task,2024.1.5,None,2024-10-10 19h50.31.463487 +0530,
141,0,141,0,246.4066539001651,,246.33452989999205,10,246.4066539001651,246.4066539001651,0.05372030008584261,247.4376691998914,248.27356400014833,[-0.345],[0.006666666666666667],[1],[0],[0],[1.8863923996686935],['target'],P1,001,2024-10-10_19h50.19.137,visual search task,2024.1.5,None,2024-10-10 19h50.31.463487 +0530,
142,0,142,0,248.36003510002047,,248.281413000077,10,248.36003510002047,248.36003510002047,0.058308799751102924,249.38796979980543,250.99103680020198,[-0.10166666666666667],[0.4116666666666667],[1],[0],[0],[2.652314600069076],['target'],P1,001,2024-10-10_19h50.19.137,visual search task,2024.1.5,None,2024-10-10 19h50.31.463487 +0530,
143,0,143,0,251.0766843999736,,250.99889620020986,10,251.0766843999736,251.0766843999736,0.059403200168162584,252.10436649993062,252.50640710024163,[-0.40166666666666667],[0.02],[1],[0],[0],[1.4491562996990979],['target'],P1,001,2024-10-10_19h50.19.137,visual search task,2024.1.5,None,2024-10-10 19h50.31.463487 +0530,
144,0,144,0,252.55704410001636,,252.51435399986804,5,252.55704410001636,252.55704410001636,0.030125499702990055,253.5892977998592,254.24064429989085,[0.20666666666666667],[-0.4716666666666667],[1],[0],[0],[1.6972576999105513],[],P1,001,2024-10-10_19h50.19.137,visual search task,2024.1.5,None,2024-10-10 19h50.31.463487 +0530,
145,0,145,0,254.3283680002205,,254.24852869985625,10,254.3283680002205,254.3283680002205,0.05826300010085106,255.3543858998455,256.8396499999799,[0.43666666666666665],[0.2783333333333333],[1],[0],[0],[2.534039900172502],['target'],P1,001,2024-10-10_19h50.19.137,visual search task,2024.1.5,None,2024-10-10 19h50.31.463487 +0530,
146,0,146,0,256.91185990022495,,256.8460514000617,10,256.91185990022495,256.91185990022495,0.04754999978467822,257.9379925997928,259.00596430012956,[-0.165],[-0.37833333333333335],[1],[0],[0],[2.113067800179124],['target'],P1,001,2024-10-10_19h50.19.137,visual search task,2024.1.5,None,2024-10-10 19h50.31.463487 +0530,
147,0,147,0,259.0872247000225,,259.0138305001892,10,259.0872247000225,259.0872247000225,0.05549770034849644,260.12222270015627,260.8563876999542,[0.33666666666666667],[-0.26166666666666666],[1],[0],[0],[1.7882256000302732],['target'],P1,001,2024-10-10_19h50.19.137,visual search task,2024.1.5,None,2024-10-10 19h50.31.463487 +0530,
148,0,148,0,260.90072950022295,,260.86283120000735,5,260.90072950022295,260.90072950022295,0.025381400249898434,261.90573679981753,262.60763909993693,[-0.07666666666666666],[-0.38],[1],[0],[0],[1.720180899836123],['target'],P1,001,2024-10-10_19h50.19.137,visual search task,2024.1.5,None,2024-10-10 19h50.31.463487 +0530,
149,0,149,0,262.6593305999413,,262.61552480002865,5,262.6593305999413,262.6593305999413,0.030173699837177992,263.6888695000671,264.1581190000288,[-0.235],[-0.005],[1],[0],[0],[1.51366199972108],['target'],P1,001,2024-10-10_19h50.19.137,visual search task,2024.1.5,None,2024-10-10 19h50.31.463487 +0530,
150,0,150,0,264.2434685002081,,264.1660962002352,10,264.2434685002081,264.2434685002081,0.05878109997138381,265.2719295001589,266.2726034000516,[-0.23333333333333334],[-0.325],[1],[0],[0],[2.0489787999540567],['target'],P1,001,2024-10-10_19h50.19.137,visual search task,2024.1.5,None,2024-10-10 19h50.31.463487 +0530,
151,0,151,0,266.35538630001247,,266.2805107999593,10,266.35538630001247,266.35538630001247,0.05613740021362901,267.3874885002151,269.0226962999441,[-0.041666666666666664],[-0.45666666666666667],[1],[0],[0],[2.68713069986552],['target'],P1,001,2024-10-10_19h50.19.137,visual search task,2024.1.5,None,2024-10-10 19h50.31.463487 +0530,
152,0,152,0,269.1143587999977,,269.0305004999973,10,269.1143587999977,269.1143587999977,0.06046529999002814,270.1375215998851,270.4729762999341,[-0.21],[-0.42833333333333334],[1],[0],[0],[1.382931999862194],['target'],P1,001,2024-10-10_19h50.19.137,visual search task,2024.1.5,None,2024-10-10 19h50.31.463487 +0530,
153,0,153,0,270.5623085000552,,270.4808042999357,10,270.5623085000552,270.5623085000552,0.05962840002030134,271.58768250001594,272.49321859981865,[0.4083333333333333],[-0.09166666666666666],[1],[0],[0],[1.9536771001294255],['target'],P1,001,2024-10-10_19h50.19.137,visual search task,2024.1.5,None,2024-10-10 19h50.31.463487 +0530,
154,0,154,0,272.5767271001823,,272.50101100001484,10,272.5767271001823,272.5767271001823,0.05760370008647442,273.604822400026,275.2410643999465,[0.38166666666666665],[0.325],[1],[0],[0],[2.683457300066948],['target'],P1,001,2024-10-10_19h50.19.137,visual search task,2024.1.5,None,2024-10-10 19h50.31.463487 +0530,
155,0,155,0,275.2836561999284,,275.24755979981273,5,275.2836561999284,275.2836561999284,0.024782400112599134,276.3045994997956,277.0571595001966,[-0.2],[-0.3416666666666667],[1],[0],[0],[1.7856199997477233],['target'],P1,001,2024-10-10_19h50.19.137,visual search task,2024.1.5,None,2024-10-10 19h50.31.463487 +0530,
156,0,156,0,277.1332684000954,,277.0651593999937,10,277.1332684000954,277.1332684000954,0.05048490036278963,278.1715703001246,279.07291290024295,[-0.44166666666666665],[0.075],[1],[0],[0],[1.9584251996129751],['target'],P1,001,2024-10-10_19h50.19.137,visual search task,2024.1.5,None,2024-10-10 19h50.31.463487 +0530,
157,0,157,0,279.11673340015113,,279.0793654001318,5,279.11673340015113,279.11673340015113,0.0260410001501441,280.1220503002405,280.9759454000741,[-0.11833333333333333],[0.4766666666666667],[1],[0],[0],[1.871252799872309],['target'],P1,001,2024-10-10_19h50.19.137,visual search task,2024.1.5,None,2024-10-10 19h50.31.463487 +0530,
158,0,158,0,281.0584697998129,,280.9844848001376,10,281.0584697998129,281.0584697998129,0.05455489968881011,282.0876374999061,282.82266259985045,[0.24],[-0.051666666666666666],[1],[0],[0],[1.7847277000546455],['target'],P1,001,2024-10-10_19h50.19.137,visual search task,2024.1.5,None,2024-10-10 19h50.31.463487 +0530,
159,0,159,0,282.87575219990686,,282.8305072998628,5,282.87575219990686,282.87575219990686,0.0307477000169456,283.889465500135,285.32519449992105,[-0.31166666666666665],[0.435],[1],[0],[0],[2.464896300341934],['target'],P1,001,2024-10-10_19h50.19.137,visual search task,2024.1.5,None,2024-10-10 19h50.31.463487 +0530,
160,0,160,0,285.3770678997971,,285.3329500001855,5,285.3770678997971,285.3770678997971,0.030101600103080273,286.40589520009235,290.45749370008707,[-0.11833333333333333],[-0.365],[1],[0],[0],[5.095514299813658],['target'],P1,001,2024-10-10_19h50.19.137,visual search task,2024.1.5,None,2024-10-10 19h50.31.463487 +0530,
161,0,161,0,290.508845299948,,290.46527179982513,5,290.508845299948,290.508845299948,0.030046300031244755,,291.3556129001081,[0.15],[-0.12333333333333334],[1],[0],[0],[0.8613309999927878],[],P1,001,2024-10-10_19h50.19.137,visual search task,2024.1.5,None,2024-10-10 19h50.31.463487 +0530,
162,0,162,0,291.4351935000159,,291.36335380002856,10,291.4351935000159,291.4351935000159,0.052379099652171135,292.45442940015346,292.72356300009415,[-0.10166666666666667],[-0.10333333333333333],[1],[0],[0],[1.308875999879092],['target'],P1,001,2024-10-10_19h50.19.137,visual search task,2024.1.5,None,2024-10-10 19h50.31.463487 +0530,
163,0,163,0,292.77591279987246,,292.73131780000404,5,292.77591279987246,292.77591279987246,0.030588400084525347,293.78900580015033,294.44235689984635,[-0.41833333333333333],[-0.15333333333333332],[1],[0],[0],[1.6814737999811769],['target'],P1,001,2024-10-10_19h50.19.137,visual search task,2024.1.5,None,2024-10-10 19h50.31.463487 +0530,
164,0,164,0,294.4931720998138,,294.4500918001868,5,294.4931720998138,294.4931720998138,0.030349699780344963,295.5055917999707,295.75817039981484,[0.03],[0.056666666666666664],[1],[0],[0],[1.2787651000544429],[],P1,001,2024-10-10_19h50.19.137,visual search task,2024.1.5,None,2024-10-10 19h50.31.463487 +0530,
165,0,165,0,295.8095030998811,,295.7659268002026,5,295.8095030998811,295.8095030998811,0.03012249991297722,296.8389767999761,297.1414065002464,[0.43666666666666665],[-0.285],[1],[0],[0],[1.346439499873668],[],P1,001,2024-10-10_19h50.19.137,visual search task,2024.1.5,None,2024-10-10 19h50.31.463487 +0530,
166,0,166,0,297.18408240005374,,297.1484658000991,5,297.18408240005374,297.18408240005374,0.024371500127017498,298.20621570013463,298.8735544998199,[0.22333333333333333],[-0.45],[1],[0],[0],[1.7015061997808516],['target'],P1,001,2024-10-10_19h50.19.137,visual search task,2024.1.5,None,2024-10-10 19h50.31.463487 +0530,
167,0,167,0,298.94617210002616,,298.8799244002439,10,298.94617210002616,298.94617210002616,0.04813440004363656,299.9874940998852,300.3557759998366,[-0.26],[-0.025],[1],[0],[0],[1.4284798000007868],['target'],P1,001,2024-10-10_19h50.19.137,visual search task,2024.1.5,None,2024-10-10 19h50.31.463487 +0530,
168,0,168,0,300.4353934000246,,300.3635404999368,10,300.4353934000246,300.4353934000246,0.05374410003423691,301.4708602000028,302.37256690021604,[0.38],[-0.30833333333333335],[1],[0],[0],[1.9563321000896394],['target'],P1,001,2024-10-10_19h50.19.137,visual search task,2024.1.5,None,2024-10-10 19h50.31.463487 +0530,
169,0,169,0,302.4219423998147,,302.3804578999989,5,302.4219423998147,302.4219423998147,0.02948169969022274,303.47080390015617,304.7743367999792,[0.4],[-0.245],[1],[0],[0],[2.3653989997692406],[],P1,001,2024-10-10_19h50.19.137,visual search task,2024.1.5,None,2024-10-10 19h50.31.463487 +0530,
170,0,170,0,304.82538719987497,,304.7821758999489,5,304.82538719987497,304.82538719987497,0.029410199727863073,305.85440250020474,306.65714399982244,[0.2733333333333333],[-0.13166666666666665],[1],[0],[0],[1.8466722997836769],[],P1,001,2024-10-10_19h50.19.137,visual search task,2024.1.5,None,2024-10-10 19h50.31.463487 +0530,
171,0,171,0,306.7079237001017,,306.66496150009334,5,306.7079237001017,306.7079237001017,0.030676899943500757,307.7377398000099,308.77382910018787,[-0.13166666666666665],[-0.22],[1],[0],[0],[2.0792326000519097],['target'],P1,001,2024-10-10_19h50.19.137,visual search task,2024.1.5,None,2024-10-10 19h50.31.463487 +0530,
172,0,172,0,308.8254594998434,,308.78185890009627,5,308.8254594998434,308.8254594998434,0.03035329980775714,309.8392297998071,313.05770689994097,[-0.4483333333333333],[0.21833333333333332],[1],[0],[0],[4.246562200132757],[],P1,001,2024-10-10_19h50.19.137,visual search task,2024.1.5,None,2024-10-10 19h50.31.463487 +0530,
173,0,173,0,313.1409304998815,,313.0666934000328,10,313.1409304998815,313.1409304998815,0.05640830006450415,314.17090420005843,314.5062178000808,[0.1],[0.018333333333333333],[1],[0],[0],[1.3844625996425748],['target'],P1,001,2024-10-10_19h50.19.137,visual search task,2024.1.5,None,2024-10-10 19h50.31.463487 +0530,
174,0,174,0,314.58809689991176,,314.5131981000304,10,314.58809689991176,314.58809689991176,0.05511760013177991,315.62092689983547,316.3560624998063,[0.4533333333333333],[-0.395],[1],[0],[0],[1.788943599909544],['target'],P1,001,2024-10-10_19h50.19.137,visual search task,2024.1.5,None,2024-10-10 19h50.31.463487 +0530,
175,0,175,0,316.4032597001642,,316.3638205998577,5,316.4032597001642,316.4032597001642,0.028037899639457464,317.40522059984505,317.9095805999823,[-0.195],[0.24166666666666667],[1],[0],[0],[1.5187139003537595],['target'],P1,001,2024-10-10_19h50.19.137,visual search task,2024.1.5,None,2024-10-10 19h50.31.463487 +0530,
176,0,176,0,317.9611901999451,,317.91730909980834,5,317.9611901999451,317.9611901999451,0.029521100223064423,318.98918930022046,319.39339479990304,[0.285],[-0.26166666666666666],[1],[0],[0],[1.4475893997587264],['target'],P1,001,2024-10-10_19h50.19.137,visual search task,2024.1.5,None,2024-10-10 19h50.31.463487 +0530,
177,0,177,0,319.44422420021147,,319.4011554000899,5,319.44422420021147,319.44422420021147,0.02962370030581951,320.4563310998492,321.09014100022614,[-0.4766666666666667],[-0.33666666666666667],[1],[0],[0],[1.660421300213784],['target'],P1,001,2024-10-10_19h50.19.137,visual search task,2024.1.5,None,2024-10-10 19h50.31.463487 +0530,
178,0,178,0,321.1783439000137,,321.09804619988427,10,321.1783439000137,321.1783439000137,0.05791049962863326,322.20469330018386,322.7736288001761,[0.11],[0.08],[1],[0],[0],[1.6187386997044086],['target'],P1,001,2024-10-10_19h50.19.137,visual search task,2024.1.5,None,2024-10-10 19h50.31.463487 +0530,
179,0,179,0,322.82392860017717,,322.78149490011856,5,322.82392860017717,322.82392860017717,0.030863599851727486,323.8390441997908,324.1253721998073,[0.27],[0.28833333333333333],[1],[0],[0],[1.31399210030213],['target'],P1,001,2024-10-10_19h50.19.137,visual search task,2024.1.5,None,2024-10-10 19h50.31.463487 +0530,
180,0,180,0,324.1723162000999,,324.1330499998294,5,324.1723162000999,324.1723162000999,0.028110200073570013,325.17227410012856,325.6393236001022,[-0.11166666666666666],[-0.47333333333333333],[1],[0],[0],[1.4791554003022611],['target'],P1,001,2024-10-10_19h50.19.137,visual search task,2024.1.5,None,2024-10-10 19h50.31.463487 +0530,
181,0,181,0,325.7243802999146,,325.6471481001936,10,325.7243802999146,325.7243802999146,0.05709529994055629,326.7711108000949,327.1744091999717,[-0.09333333333333334],[-0.115],[1],[0],[0],[1.471146000083536],['target'],P1,001,2024-10-10_19h50.19.137,visual search task,2024.1.5,None,2024-10-10 19h50.31.463487 +0530,
182,0,182,0,327.2532124998979,,327.18224290013313,10,327.2532124998979,327.2532124998979,0.05335539998486638,328.28775209980085,328.59053550008684,[-0.3016666666666667],[0.27666666666666667],[1],[0],[0],[1.355946599971503],['target'],P1,001,2024-10-10_19h50.19.137,visual search task,2024.1.5,None,2024-10-10 19h50.31.463487 +0530,
183,0,183,0,328.6371455001645,,328.59815819980577,5,328.6371455001645,328.6371455001645,0.025643699802458286,329.63930349983275,329.9243653002195,[-0.105],[0.25166666666666665],[1],[0],[0],[1.3013512999750674],['target'],P1,001,2024-10-10_19h50.19.137,visual search task,2024.1.5,None,2024-10-10 19h50.31.463487 +0530,
184,0,184,0,330.0121884001419,,329.9320228002034,10,330.0121884001419,330.0121884001419,0.05892280023545027,331.03726699994877,331.4723030999303,[-0.4533333333333333],[-0.22333333333333333],[1],[0],[0],[1.4823912996798754],['target'],P1,001,2024-10-10_19h50.19.137,visual search task,2024.1.5,None,2024-10-10 19h50.31.463487 +0530,
185,0,185,0,331.5972571000457,,331.4801186998375,10,331.5972571000457,331.5972571000457,0.09445519978180528,332.6210139999166,332.9557652999647,[-0.14166666666666666],[0.085],[1],[0],[0],[1.3822262003086507],['target'],P1,001,2024-10-10_19h50.19.137,visual search task,2024.1.5,None,2024-10-10 19h50.31.463487 +0530,
186,0,186,0,333.0354778999463,,332.96358049986884,10,333.0354778999463,333.0354778999463,0.05397220002487302,334.05441540014,334.3225291999988,[-0.3566666666666667],[0.023333333333333334],[1],[0],[0],[1.3060292000882328],['target'],P1,001,2024-10-10_19h50.19.137,visual search task,2024.1.5,None,2024-10-10 19h50.31.463487 +0530,
187,0,187,0,334.4070521998219,,334.3305198000744,10,334.4070521998219,334.4070521998219,0.0587292998097837,335.4375140001066,335.83961609983817,[-0.31666666666666665],[0.48833333333333334],[1],[0],[0],[1.4513643002137542],['target'],P1,001,2024-10-10_19h50.19.137,visual search task,2024.1.5,None,2024-10-10 19h50.31.463487 +0530,
188,0,188,0,335.9214976001531,,335.8475366998464,10,335.9214976001531,335.9214976001531,0.0558941001072526,336.95433520013466,337.45677090017125,[-0.36333333333333334],[-0.4166666666666667],[1],[0],[0],[1.5543833002448082],['target'],P1,001,2024-10-10_19h50.19.137,visual search task,2024.1.5,None,2024-10-10 19h50.31.463487 +0530,
189,0,189,0,337.5421269000508,,337.46472069993615,10,337.5421269000508,337.5421269000508,0.05873539997264743,338.5708272000775,339.83920830022544,[-0.48833333333333334],[0.18166666666666667],[1],[0],[0],[2.316775900311768],['target'],P1,001,2024-10-10_19h50.19.137,visual search task,2024.1.5,None,2024-10-10 19h50.31.463487 +0530,
190,0,190,0,339.8875258001499,,339.8470879998058,5,339.8875258001499,339.8875258001499,0.02881859987974167,340.88872059993446,341.1573665998876,[-0.47],[0.22833333333333333],[1],[0],[0],[1.2824674001894891],['target'],P1,001,2024-10-10_19h50.19.137,visual search task,2024.1.5,None,2024-10-10 19h50.31.463487 +0530,
191,0,191,0,341.20624609990045,,341.1651844000444,5,341.20624609990045,341.20624609990045,0.02924400009214878,342.22233380004764,342.9904404999688,[0.45666666666666667],[-0.15333333333333332],[1],[0],[0],[1.7971187001094222],['target'],P1,001,2024-10-10_19h50.19.137,visual search task,2024.1.5,None,2024-10-10 19h50.31.463487 +0530,
192,0,192,0,343.0414646998979,,342.99868649989367,5,343.0414646998979,343.0414646998979,0.03145129978656769,344.07272010017186,344.5580283999443,[0.12666666666666668],[-0.16],[1],[0],[0],[1.5294649000279605],['target'],P1,001,2024-10-10_19h50.19.137,visual search task,2024.1.5,None,2024-10-10 19h50.31.463487 +0530,
193,0,193,0,344.61013629985973,,344.56596969999373,5,344.61013629985973,344.61013629985973,0.0306899999268353,345.62255650013685,347.37378570018336,[0.19],[0.17],[1],[0],[0],[2.778409800026566],['target'],P1,001,2024-10-10_19h50.19.137,visual search task,2024.1.5,None,2024-10-10 19h50.31.463487 +0530,
194,0,194,0,347.45089340023696,,347.38152930000797,10,347.45089340023696,347.45089340023696,0.051197499968111515,348.4707109001465,349.04034489998594,[0.03333333333333333],[0.06666666666666667],[1],[0],[0],[1.6087011997587979],['target'],P1,001,2024-10-10_19h50.19.137,visual search task,2024.1.5,None,2024-10-10 19h50.31.463487 +0530,
195,0,195,0,349.1128806998022,,349.0467289001681,10,349.1128806998022,349.1128806998022,0.04755050037056208,350.15410980023444,350.2561302999966,[0.14833333333333334],[-0.4166666666666667],[1],[0],[0],[1.162543899845332],['target'],P1,001,2024-10-10_19h50.19.137,visual search task,2024.1.5,None,2024-10-10 19h50.31.463487 +0530,
196,0,196,0,350.3342042998411,,350.26394140021876,10,350.3342042998411,350.3342042998411,0.05124019971117377,351.3541219001636,351.7558241998777,[-0.07666666666666666],[-0.2866666666666667],[1],[0],[0],[1.4416970000602305],['target'],P1,001,2024-10-10_19h50.19.137,visual search task,2024.1.5,None,2024-10-10 19h50.31.463487 +0530,
197,0,197,0,351.8367151999846,,351.76374500012025,10,351.8367151999846,351.8367151999846,0.05506819998845458,352.870735200122,353.0404542000033,[-0.17833333333333334],[-0.09666666666666666],[1],[0],[0],[1.2226460999809206],['target'],P1,001,2024-10-10_19h50.19.137,visual search task,2024.1.5,None,2024-10-10 19h50.31.463487 +0530,
198,0,198,0,353.09075039997697,,353.0488626998849,5,353.09075039997697,353.09075039997697,0.030802199617028236,354.1062119002454,354.9903502999805,[0.011666666666666667],[0.11],[1],[0],[0],[1.9118560999631882],['target'],P1,001,2024-10-10_19h50.19.137,visual search task,2024.1.5,None,2024-10-10 19h50.31.463487 +0530,
199,0,199,0,355.0392157002352,,354.99818240012974,5,355.0392157002352,355.0392157002352,0.02943019988015294,356.0388918998651,356.6080856998451,[0.25],[-0.2633333333333333],[1],[0],[0],[1.5816307999193668],['target'],P1,001,2024-10-10_19h50.19.137,visual search task,2024.1.5,None,2024-10-10 19h50.31.463487 +0530,
