trials.thisRepN,trials.thisTrialN,trials.thisN,trials.thisIndex,thisRow.t,notes,trial.started,num_distr,fixation.started,target.started,mouse.started,fixation.stopped,trial.stopped,mouse.x,mouse.y,mouse.leftButton,mouse.midButton,mouse.rightButton,mouse.time,mouse.clicked_name,participant,session,date,expName,psychopyVersion,frameRate,expStart,
0,0,0,0,0.08145909989252687,,0.022562299855053425,5,0.08145909989252687,0.08145909989252687,0.05222159996628761,1.13044109987095,1.6743725999258459,[0.23166666666666666],[0.26666666666666666],[1],[0],[0],[1.6209827000275254],['target'],P2,001,2024-10-10_19h29.42.261,visual search task,2024.1.5,None,2024-10-10 19h30.27.762448 +0530,
1,0,1,0,1.7277644998393953,,1.681204800028354,10,1.7277644998393953,1.7277644998393953,0.03309719962999225,2.731389299966395,3.1493844999931753,[-0.41333333333333333],[-0.34833333333333333],[1],[0],[0],[1.4354922999627888],['target'],P2,001,2024-10-10_19h29.42.261,visual search task,2024.1.5,None,2024-10-10 19h30.27.762448 +0530,
2,0,2,0,3.2037518001161516,,3.1540740998461843,10,3.2037518001161516,3.2037518001161516,0.03540239995345473,4.230163699947298,4.333693199791014,[-0.15],[0.21333333333333335],[1],[0],[0],[1.1444632997736335],['target'],P2,001,2024-10-10_19h29.42.261,visual search task,2024.1.5,None,2024-10-10 19h30.27.762448 +0530,
3,0,3,0,4.382036699913442,,4.34158039977774,5,4.382036699913442,4.382036699913442,0.03065000008791685,5.382336599752307,5.500171999912709,[0.32666666666666666],[0.18166666666666667],[1],[0],[0],[1.1289523001760244],['target'],P2,001,2024-10-10_19h29.42.261,visual search task,2024.1.5,None,2024-10-10 19h30.27.762448 +0530,
4,0,4,0,5.5516181997954845,,5.50794170005247,5,5.5516181997954845,5.5516181997954845,0.028789000120013952,6.582535400055349,7.434934699907899,[-0.45166666666666666],[-0.25166666666666665],[1],[0],[0],[1.8992352001369],['target'],P2,001,2024-10-10_19h29.42.261,visual search task,2024.1.5,None,2024-10-10 19h30.27.762448 +0530,
5,0,5,0,7.497483800165355,,7.442615299951285,10,7.497483800165355,7.497483800165355,0.04218949982896447,8.497781199868768,9.032381100114435,[-0.07833333333333334],[0.3466666666666667],[1],[0],[0],[1.5487903002649546],['target'],P2,001,2024-10-10_19h29.42.261,visual search task,2024.1.5,None,2024-10-10 19h30.27.762448 +0530,
6,0,6,0,9.063340900000185,,9.036903100088239,5,9.063340900000185,9.063340900000185,0.01740040024742484,10.098675000015646,10.60017770016566,[0.2633333333333333],[0.45],[1],[0],[0],[1.546251299791038],['target'],P2,001,2024-10-10_19h29.42.261,visual search task,2024.1.5,None,2024-10-10 19h30.27.762448 +0530,
7,0,7,0,10.669569700025022,,10.607842199970037,10,10.669569700025022,10.669569700025022,0.04908519983291626,11.713554199784994,11.748530599754304,[-0.02],[0.21166666666666667],[1],[0],[0],[1.0926353000104427],['target'],P2,001,2024-10-10_19h29.42.261,visual search task,2024.1.5,None,2024-10-10 19h30.27.762448 +0530,
8,0,8,0,11.818566599860787,,11.75663929991424,10,11.818566599860787,11.818566599860787,0.04725169995799661,12.846728699747473,13.282230999786407,[0.35333333333333333],[0.18],[1],[0],[0],[1.4796297000721097],['target'],P2,001,2024-10-10_19h29.42.261,visual search task,2024.1.5,None,2024-10-10 19h30.27.762448 +0530,
9,0,9,0,13.338019600138068,,13.28680090000853,10,13.338019600138068,13.338019600138068,0.03789070015773177,14.364321900065988,14.649083099793643,[-0.03666666666666667],[0.3516666666666667],[1],[0],[0],[1.3248895001597703],['target'],P2,001,2024-10-10_19h29.42.261,visual search task,2024.1.5,None,2024-10-10 19h30.27.762448 +0530,
10,0,10,0,14.681495599914342,,14.653640899807215,5,14.681495599914342,14.681495599914342,0.01880620000883937,15.681007400155067,16.29974769987166,[0.056666666666666664],[-0.3016666666666667],[1],[0],[0],[1.6278653000481427],['target'],P2,001,2024-10-10_19h29.42.261,visual search task,2024.1.5,None,2024-10-10 19h30.27.762448 +0530,
11,0,11,0,16.352901299949735,,16.304314999841154,10,16.352901299949735,16.352901299949735,0.034207799937576056,17.364999799989164,17.46631250018254,[0.16666666666666666],[0.17666666666666667],[1],[0],[0],[1.1281870999373496],['target'],P2,001,2024-10-10_19h29.42.261,visual search task,2024.1.5,None,2024-10-10 19h30.27.762448 +0530,
12,0,12,0,17.537163800094277,,17.47395779984072,10,17.537163800094277,17.537163800094277,0.050486800260841846,18.564470999874175,18.765827999915928,[-0.14166666666666666],[-0.02],[1],[0],[0],[1.242363499943167],['target'],P2,001,2024-10-10_19h29.42.261,visual search task,2024.1.5,None,2024-10-10 19h30.27.762448 +0530,
13,0,13,0,18.813463300000876,,18.773908999748528,5,18.813463300000876,18.813463300000876,0.03070100024342537,,19.783545199781656,[-0.19],[-0.16166666666666665],[1],[0],[0],[0.9802918001078069],['target'],P2,001,2024-10-10_19h29.42.261,visual search task,2024.1.5,None,2024-10-10 19h30.27.762448 +0530,
14,0,14,0,19.850678800139576,,19.79118510009721,10,19.850678800139576,19.850678800139576,0.047012099996209145,20.86453490005806,21.499486499931663,[0.33166666666666667],[0.3883333333333333],[1],[0],[0],[1.6623614998534322],['target'],P2,001,2024-10-10_19h29.42.261,visual search task,2024.1.5,None,2024-10-10 19h30.27.762448 +0530,
15,0,15,0,21.567940399982035,,21.50737310014665,10,21.567940399982035,21.567940399982035,0.047619800083339214,22.597292399965227,22.932024899870157,[-0.43833333333333335],[0.32166666666666666],[1],[0],[0],[1.378094700165093],['target'],P2,001,2024-10-10_19h29.42.261,visual search task,2024.1.5,None,2024-10-10 19h30.27.762448 +0530,
16,0,16,0,22.979274599812925,,22.939749999903142,5,22.979274599812925,22.979274599812925,0.028520299587398767,23.981215599924326,24.166623800061643,[-0.105],[-0.205],[1],[0],[0],[1.1993635999970138],['target'],P2,001,2024-10-10_19h29.42.261,visual search task,2024.1.5,None,2024-10-10 19h30.27.762448 +0530,
17,0,17,0,24.23213359992951,,24.174358900170773,10,24.23213359992951,24.23213359992951,0.04536049999296665,25.23108270019293,25.682255699764937,[-0.043333333333333335],[-0.13833333333333334],[1],[0],[0],[1.4637764999642968],['target'],P2,001,2024-10-10_19h29.42.261,visual search task,2024.1.5,None,2024-10-10 19h30.27.762448 +0530,
18,0,18,0,25.738407200202346,,25.687063599936664,10,25.738407200202346,25.738407200202346,0.03707030043005943,26.78036649990827,26.815253499895334,[-0.09166666666666666],[0.23666666666666666],[1],[0],[0],[1.091584200039506],['target'],P2,001,2024-10-10_19h29.42.261,visual search task,2024.1.5,None,2024-10-10 19h30.27.762448 +0530,
19,0,19,0,26.877406700048596,,26.82294340012595,10,26.877406700048596,26.877406700048596,0.041873599868267775,27.896855200175196,28.36530329985544,[-0.14],[-0.48333333333333334],[1],[0],[0],[1.5015652002766728],['target'],P2,001,2024-10-10_19h29.42.261,visual search task,2024.1.5,None,2024-10-10 19h30.27.762448 +0530,
20,0,20,0,28.44804670009762,,28.373225199989974,10,28.44804670009762,28.44804670009762,0.05966460006311536,29.447665099985898,29.715457200072706,[-0.19333333333333333],[0.09166666666666666],[1],[0],[0],[1.2838460998609662],['target'],P2,001,2024-10-10_19h29.42.261,visual search task,2024.1.5,None,2024-10-10 19h30.27.762448 +0530,
21,0,21,0,29.768344500102103,,29.7199570001103,10,29.768344500102103,29.768344500102103,0.03398869978263974,30.78080249996856,30.98221779987216,[-0.15833333333333333],[-0.41],[1],[0],[0],[1.2287522000260651],['target'],P2,001,2024-10-10_19h29.42.261,visual search task,2024.1.5,None,2024-10-10 19h30.27.762448 +0530,
22,0,22,0,31.014007300138474,,30.986789599992335,5,31.014007300138474,31.014007300138474,0.018400300294160843,32.015802999958396,32.1485101999715,[0.005],[0.25],[1],[0],[0],[1.1435763998888433],['target'],P2,001,2024-10-10_19h29.42.261,visual search task,2024.1.5,None,2024-10-10 19h30.27.762448 +0530,
23,0,23,0,32.2137898998335,,32.15629060007632,10,32.2137898998335,32.2137898998335,0.04472889984026551,33.214313299860805,33.398591899778694,[-0.155],[0.135],[1],[0],[0],[1.198877700138837],['target'],P2,001,2024-10-10_19h29.42.261,visual search task,2024.1.5,None,2024-10-10 19h30.27.762448 +0530,
24,0,24,0,33.43058570008725,,33.40308960014954,5,33.43058570008725,33.43058570008725,0.018668100237846375,34.430967200081795,34.8335293000564,[-0.03833333333333333],[0.3466666666666667],[1],[0],[0],[1.4121909998357296],['target'],P2,001,2024-10-10_19h29.42.261,visual search task,2024.1.5,None,2024-10-10 19h30.27.762448 +0530,
25,0,25,0,34.88427140004933,,34.83797820005566,10,34.88427140004933,34.88427140004933,0.032925200182944536,35.930001200176775,36.198979599867016,[0.15833333333333333],[0.24833333333333332],[1],[0],[0],[1.328395000193268],['target'],P2,001,2024-10-10_19h29.42.261,visual search task,2024.1.5,None,2024-10-10 19h30.27.762448 +0530,
26,0,26,0,36.26731280004606,,36.206808699760586,10,36.26731280004606,36.26731280004606,0.047371499706059694,37.31379819987342,38.1659443997778,[-0.31],[0.145],[1],[0],[0],[1.912978700362146],['target'],P2,001,2024-10-10_19h29.42.261,visual search task,2024.1.5,None,2024-10-10 19h30.27.762448 +0530,
27,0,27,0,38.197984599974006,,38.17050899984315,5,38.197984599974006,38.197984599974006,0.01851740013808012,39.19872449990362,39.44854710018262,[0.4],[-0.165],[1],[0],[0],[1.2598412996158004],['target'],P2,001,2024-10-10_19h29.42.261,visual search task,2024.1.5,None,2024-10-10 19h30.27.762448 +0530,
28,0,28,0,39.536791699938476,,39.45620229979977,10,39.536791699938476,39.536791699938476,0.05855780001729727,40.564693899825215,40.74879990005866,[-0.20833333333333334],[-0.26166666666666666],[1],[0],[0],[1.235175000037998],['target'],P2,001,2024-10-10_19h29.42.261,visual search task,2024.1.5,None,2024-10-10 19h30.27.762448 +0530,
29,0,29,0,40.803674899972975,,40.75331680011004,10,40.803674899972975,40.803674899972975,0.03554300032556057,41.831879700068384,42.36607600003481,[-0.04666666666666667],[0.13666666666666666],[1],[0],[0],[1.5777312000282109],['target'],P2,001,2024-10-10_19h29.42.261,visual search task,2024.1.5,None,2024-10-10 19h30.27.762448 +0530,
30,0,30,0,42.42090989975259,,42.37060149991885,10,42.42090989975259,42.42090989975259,0.036444100085645914,43.43092479975894,43.88237420003861,[0.39666666666666667],[-0.10833333333333334],[1],[0],[0],[1.4758238000795245],['target'],P2,001,2024-10-10_19h29.42.261,visual search task,2024.1.5,None,2024-10-10 19h30.27.762448 +0530,
31,0,31,0,43.914074500091374,,43.88695230009034,5,43.914074500091374,43.914074500091374,0.018370399717241526,44.9303866000846,45.20023689977825,[0.19],[0.3016666666666667],[1],[0],[0],[1.295257399789989],['target'],P2,001,2024-10-10_19h29.42.261,visual search task,2024.1.5,None,2024-10-10 19h30.27.762448 +0530,
32,0,32,0,45.2668921998702,,45.20797170000151,10,45.2668921998702,45.2668921998702,0.04583759978413582,46.31364060007036,46.68634109990671,[0.37833333333333335],[0.015],[1],[0],[0],[1.4335207999683917],['target'],P2,001,2024-10-10_19h29.42.261,visual search task,2024.1.5,None,2024-10-10 19h30.27.762448 +0530,
33,0,33,0,46.73793140007183,,46.6941180001013,5,46.73793140007183,46.73793140007183,0.032107300125062466,47.74877300020307,48.38377940002829,[-0.37833333333333335],[0.43],[1],[0],[0],[1.6584513001143932],['target'],P2,001,2024-10-10_19h29.42.261,visual search task,2024.1.5,None,2024-10-10 19h30.27.762448 +0530,
34,0,34,0,48.45041920011863,,48.39160820003599,10,48.45041920011863,48.45041920011863,0.045303200371563435,49.46425799978897,50.182053999975324,[0.4683333333333333],[0.28],[1],[0],[0],[1.7462594001553953],['target'],P2,001,2024-10-10_19h29.42.261,visual search task,2024.1.5,None,2024-10-10 19h30.27.762448 +0530,
35,0,35,0,50.22710830019787,,50.189906999934465,5,50.22710830019787,50.22710830019787,0.028869700152426958,51.23103899974376,51.33237779978663,[-0.3983333333333333],[0.24333333333333335],[1],[0],[0],[1.114846599753946],['target'],P2,001,2024-10-10_19h29.42.261,visual search task,2024.1.5,None,2024-10-10 19h30.27.762448 +0530,
36,0,36,0,51.364274399820715,,51.3368628998287,5,51.364274399820715,51.364274399820715,0.018648399971425533,52.382581300102174,52.88348180009052,[0.035],[0.285],[1],[0],[0],[1.5282743000425398],['target'],P2,001,2024-10-10_19h29.42.261,visual search task,2024.1.5,None,2024-10-10 19h30.27.762448 +0530,
37,0,37,0,52.96071879984811,,52.89108920004219,10,52.96071879984811,52.96071879984811,0.05641820002347231,53.996851599775255,54.46515680011362,[0.44166666666666665],[-0.12333333333333334],[1],[0],[0],[1.5186713999137282],['target'],P2,001,2024-10-10_19h29.42.261,visual search task,2024.1.5,None,2024-10-10 19h30.27.762448 +0530,
38,0,38,0,54.51272690016776,,54.47295519988984,5,54.51272690016776,54.51272690016776,0.03151020035147667,55.51478060008958,55.70207350002602,[0.09833333333333333],[-0.24],[1],[0],[0],[1.1986040002666414],['target'],P2,001,2024-10-10_19h29.42.261,visual search task,2024.1.5,None,2024-10-10 19h30.27.762448 +0530,
39,0,39,0,55.767624999862164,,55.709849199745804,10,55.767624999862164,55.767624999862164,0.044739299919456244,56.81328090000898,57.18264230014756,[-0.4],[0.07],[1],[0],[0],[1.429358699824661],['target'],P2,001,2024-10-10_19h29.42.261,visual search task,2024.1.5,None,2024-10-10 19h30.27.762448 +0530,
40,0,40,0,57.23993830010295,,57.18710679979995,10,57.23993830010295,57.23993830010295,0.035839099902659655,58.24780509993434,58.9497410999611,[0.2],[-0.43166666666666664],[1],[0],[0],[1.7272303998470306],['target'],P2,001,2024-10-10_19h29.42.261,visual search task,2024.1.5,None,2024-10-10 19h30.27.762448 +0530,
41,0,41,0,59.005221699830145,,58.95452440017834,10,59.005221699830145,59.005221699830145,0.03740730043500662,60.030741000082344,60.70085089979693,[0.45666666666666667],[0.345],[1],[0],[0],[1.7092669000849128],['target'],P2,001,2024-10-10_19h29.42.261,visual search task,2024.1.5,None,2024-10-10 19h30.27.762448 +0530,
42,0,42,0,60.748796000145376,,60.70861109998077,5,60.748796000145376,60.748796000145376,0.028828199952840805,61.764962799847126,62.23338680015877,[-0.27],[-0.43166666666666664],[1],[0],[0],[1.4970451002009213],['target'],P2,001,2024-10-10_19h29.42.261,visual search task,2024.1.5,None,2024-10-10 19h30.27.762448 +0530,
43,0,43,0,62.300026500131935,,62.241152400150895,10,62.300026500131935,62.300026500131935,0.04639440029859543,63.31538909999654,63.69962430000305,[0.4766666666666667],[0.4683333333333333],[1],[0],[0],[1.4132524002343416],['target'],P2,001,2024-10-10_19h29.42.261,visual search task,2024.1.5,None,2024-10-10 19h30.27.762448 +0530,
44,0,44,0,63.730812299996614,,63.70415409980342,5,63.730812299996614,63.730812299996614,0.017449900042265654,64.73119160020724,65.39956110017374,[0.24166666666666667],[-0.41],[1],[0],[0],[1.6784370001405478],['target'],P2,001,2024-10-10_19h29.42.261,visual search task,2024.1.5,None,2024-10-10 19h30.27.762448 +0530,
45,0,45,0,65.45420450018719,,65.40403180010617,10,65.45420450018719,65.45420450018719,0.03572490019723773,66.48017079988495,66.56554639991373,[-0.09],[-0.085],[1],[0],[0],[1.1262904996983707],['target'],P2,001,2024-10-10_19h29.42.261,visual search task,2024.1.5,None,2024-10-10 19h30.27.762448 +0530,
46,0,46,0,66.59736509993672,,66.57010889984667,5,66.59736509993672,66.59736509993672,0.018521399702876806,67.5985619998537,68.01950650010258,[0.2633333333333333],[-0.28],[1],[0],[0],[1.4311771001666784],['target'],P2,001,2024-10-10_19h29.42.261,visual search task,2024.1.5,None,2024-10-10 19h30.27.762448 +0530,
47,0,47,0,68.0685967002064,,68.02717790007591,5,68.0685967002064,68.0685967002064,0.03023130027577281,69.08075230009854,69.28305000020191,[0.07],[-0.47833333333333333],[1],[0],[0],[1.2268270002678037],['target'],P2,001,2024-10-10_19h29.42.261,visual search task,2024.1.5,None,2024-10-10 19h30.27.762448 +0530,
48,0,48,0,69.31494119996205,,69.2875173999928,5,69.31494119996205,69.31494119996205,0.018386099953204393,70.3148006000556,70.86566240014508,[-0.37333333333333335],[-0.25666666666666665],[1],[0],[0],[1.5602638004347682],['target'],P2,001,2024-10-10_19h29.42.261,visual search task,2024.1.5,None,2024-10-10 19h30.27.762448 +0530,
49,0,49,0,70.92014929978177,,70.87019809987396,10,70.92014929978177,70.92014929978177,0.03491940023377538,71.93186980020255,72.132767399773,[-0.34833333333333333],[0.165],[1],[0],[0],[1.2281757001765072],['target'],P2,001,2024-10-10_19h29.42.261,visual search task,2024.1.5,None,2024-10-10 19h30.27.762448 +0530,
50,0,50,0,72.18866890016943,,72.13723320001736,10,72.18866890016943,72.18866890016943,0.035897300112992525,73.19834240013734,73.41558009991422,[0.005],[0.37166666666666665],[1],[0],[0],[1.2427045004442334],['target'],P2,001,2024-10-10_19h29.42.261,visual search task,2024.1.5,None,2024-10-10 19h30.27.762448 +0530,
51,0,51,0,73.50174910016358,,73.42336810007691,10,73.50174910016358,73.50174910016358,0.056805700063705444,74.53139110002667,75.28415329987183,[0.3283333333333333],[0.3383333333333333],[1],[0],[0],[1.80512690031901],['target'],P2,001,2024-10-10_19h29.42.261,visual search task,2024.1.5,None,2024-10-10 19h30.27.762448 +0530,
52,0,52,0,75.33892949996516,,75.28891520015895,10,75.33892949996516,75.33892949996516,0.035429499577730894,76.36582260020077,76.66774419974536,[0.29333333333333333],[0.2],[1],[0],[0],[1.3439772999845445],['target'],P2,001,2024-10-10_19h29.42.261,visual search task,2024.1.5,None,2024-10-10 19h30.27.762448 +0530,
53,0,53,0,76.6977821001783,,76.67224620003253,5,76.6977821001783,76.6977821001783,0.01687399996444583,77.69824879989028,78.69865779997781,[-0.11666666666666667],[0.25166666666666665],[1],[0],[0],[2.0100651998072863],['target'],P2,001,2024-10-10_19h29.42.261,visual search task,2024.1.5,None,2024-10-10 19h30.27.762448 +0530,
54,0,54,0,78.72968469979241,,78.7031227000989,5,78.72968469979241,78.72968469979241,0.017313200049102306,79.73147829994559,80.36575580015779,[0.34],[0.235],[1],[0],[0],[1.6458201999776065],['target'],P2,001,2024-10-10_19h29.42.261,visual search task,2024.1.5,None,2024-10-10 19h30.27.762448 +0530,
55,0,55,0,80.39810420013964,,80.37028090003878,5,80.39810420013964,80.39810420013964,0.018737899605184793,81.43186890007928,81.63354529999197,[0.4],[0.42833333333333334],[1],[0],[0],[1.2448956998996437],['target'],P2,001,2024-10-10_19h29.42.261,visual search task,2024.1.5,None,2024-10-10 19h30.27.762448 +0530,
56,0,56,0,81.68481269991025,,81.64130839984864,5,81.68481269991025,81.68481269991025,0.03014210006222129,82.69852790003642,82.90129319997504,[0.015],[-0.26166666666666666],[1],[0],[0],[1.2308831000700593],['target'],P2,001,2024-10-10_19h29.42.261,visual search task,2024.1.5,None,2024-10-10 19h30.27.762448 +0530,
57,0,57,0,82.97319860011339,,82.90921809989959,10,82.97319860011339,82.97319860011339,0.049983199685811996,83.98100699996576,83.98226709989831,[0.03333333333333333],[0.15333333333333332],[1],[0],[0],[1.0242743999697268],['target'],P2,001,2024-10-10_19h29.42.261,visual search task,2024.1.5,None,2024-10-10 19h30.27.762448 +0530,
58,0,58,0,84.04050089977682,,83.98698929976672,10,84.04050089977682,84.04050089977682,0.03870909987017512,85.08053340017796,85.98206509975716,[-0.41833333333333333],[0.29],[1],[0],[0],[1.956723699811846],['target'],P2,001,2024-10-10_19h29.42.261,visual search task,2024.1.5,None,2024-10-10 19h30.27.762448 +0530,
59,0,59,0,86.03152860002592,,85.98972539976239,5,86.03152860002592,86.03152860002592,0.028578399680554867,87.03140110010281,87.8013562001288,[0.2833333333333333],[0.01],[1],[0],[0],[1.7842083000577986],['target'],P2,001,2024-10-10_19h29.42.261,visual search task,2024.1.5,None,2024-10-10 19h30.27.762448 +0530,
60,0,60,0,87.85349089978263,,87.80587639985606,10,87.85349089978263,87.85349089978263,0.03411180013790727,88.89705300005153,89.39848539978266,[-0.05333333333333334],[0.49333333333333335],[1],[0],[0],[1.5588400000706315],['target'],P2,001,2024-10-10_19h29.42.261,visual search task,2024.1.5,None,2024-10-10 19h30.27.762448 +0530,
61,0,61,0,89.4425129997544,,89.40627000015229,5,89.4425129997544,89.4425129997544,0.026913299690932035,90.44883299991488,91.00219429982826,[0.3233333333333333],[0.155],[1],[0],[0],[1.5700203999876976],['target'],P2,001,2024-10-10_19h29.42.261,visual search task,2024.1.5,None,2024-10-10 19h30.27.762448 +0530,
62,0,62,0,91.04915559990332,,91.00986750004813,5,91.04915559990332,91.04915559990332,0.028619100339710712,92.06408069981262,92.434174799826,[-0.03],[-0.045],[1],[0],[0],[1.3967923000454903],['target'],P2,001,2024-10-10_19h29.42.261,visual search task,2024.1.5,None,2024-10-10 19h30.27.762448 +0530,
63,0,63,0,92.46387790003791,,92.43860979983583,5,92.46387790003791,92.46387790003791,0.016977500170469284,93.46471020020545,94.08315289998427,[0.0],[0.485],[1],[0],[0],[1.628029499668628],['target'],P2,001,2024-10-10_19h29.42.261,visual search task,2024.1.5,None,2024-10-10 19h30.27.762448 +0530,
64,0,64,0,94.12166860001162,,94.08776450017467,5,94.12166860001162,94.12166860001162,0.020464399829506874,95.13124099979177,96.13416730007157,[0.03],[-0.345],[1],[0],[0],[2.026308100204915],['target'],P2,001,2024-10-10_19h29.42.261,visual search task,2024.1.5,None,2024-10-10 19h30.27.762448 +0530,
65,0,65,0,96.20547540020198,,96.14188619982451,10,96.20547540020198,96.20547540020198,0.04985729977488518,97.21472429996356,97.61684989975765,[-0.45],[0.14833333333333334],[1],[0],[0],[1.4263553000055254],['target'],P2,001,2024-10-10_19h29.42.261,visual search task,2024.1.5,None,2024-10-10 19h30.27.762448 +0530,
66,0,66,0,97.67081769974902,,97.62140179984272,10,97.67081769974902,97.67081769974902,0.03556180000305176,98.71380859985948,99.04860129998997,[-0.21333333333333335],[-0.25],[1],[0],[0],[1.3919375999830663],['target'],P2,001,2024-10-10_19h29.42.261,visual search task,2024.1.5,None,2024-10-10 19h30.27.762448 +0530,
67,0,67,0,99.12854210007936,,99.05666470015422,10,99.12854210007936,99.12854210007936,0.05767050012946129,100.16360649978742,100.58298739977181,[-0.02],[0.13333333333333333],[1],[0],[0],[1.4698189999908209],['target'],P2,001,2024-10-10_19h29.42.261,visual search task,2024.1.5,None,2024-10-10 19h30.27.762448 +0530,
68,0,68,0,100.6156319999136,,100.58796120015904,5,100.6156319999136,100.6156319999136,0.018950900062918663,101.64699969999492,102.18358479999006,[-0.28833333333333333],[-0.24],[1],[0],[0],[1.576965999789536],['target'],P2,001,2024-10-10_19h29.42.261,visual search task,2024.1.5,None,2024-10-10 19h30.27.762448 +0530,
69,0,69,0,102.23385349987075,,102.19154429994524,5,102.23385349987075,102.23385349987075,0.02952570002526045,103.24837360018864,103.73272259999067,[-0.23166666666666666],[0.18833333333333332],[1],[0],[0],[1.5128922001458704],['target'],P2,001,2024-10-10_19h29.42.261,visual search task,2024.1.5,None,2024-10-10 19h30.27.762448 +0530,
70,0,70,0,103.76698679989204,,103.73723169974983,5,103.76698679989204,103.76698679989204,0.01829299982637167,104.78412939980626,105.08330440009013,[0.0],[0.12333333333333334],[1],[0],[0],[1.3280806997790933],['target'],P2,001,2024-10-10_19h29.42.261,visual search task,2024.1.5,None,2024-10-10 19h30.27.762448 +0530,
71,0,71,0,105.14656409993768,,105.09093789989129,10,105.14656409993768,105.14656409993768,0.04269509995356202,106.18044719984755,106.98163209995255,[0.16333333333333333],[-0.38666666666666666],[1],[0],[0],[1.8490618001669645],['target'],P2,001,2024-10-10_19h29.42.261,visual search task,2024.1.5,None,2024-10-10 19h30.27.762448 +0530,
72,0,72,0,107.03521559992805,,106.9893863000907,5,107.03521559992805,107.03521559992805,0.031147300265729427,108.04843389987946,108.9000531998463,[0.2833333333333333],[-0.21166666666666667],[1],[0],[0],[1.8805481996387243],['target'],P2,001,2024-10-10_19h29.42.261,visual search task,2024.1.5,None,2024-10-10 19h30.27.762448 +0530,
73,0,73,0,108.95210690004751,,108.90780910011381,5,108.95210690004751,108.95210690004751,0.03068750025704503,109.96441579982638,110.36855590017512,[-0.06333333333333334],[0.43833333333333335],[1],[0],[0],[1.4311195998452604],['target'],P2,001,2024-10-10_19h29.42.261,visual search task,2024.1.5,None,2024-10-10 19h30.27.762448 +0530,
74,0,74,0,110.40843089995906,,110.37622819980606,5,110.40843089995906,110.40843089995906,0.02463539969176054,111.41440089978278,112.46695839986205,[-0.2866666666666667],[0.021666666666666667],[1],[0],[0],[2.0672721001319587],['target'],P2,001,2024-10-10_19h29.42.261,visual search task,2024.1.5,None,2024-10-10 19h30.27.762448 +0530,
75,0,75,0,112.5289626000449,,112.4746821001172,10,112.5289626000449,112.5289626000449,0.04161170031875372,113.53098070016131,113.74954929994419,[-0.07333333333333333],[0.40166666666666667],[1],[0],[0],[1.2345159999094903],['target'],P2,001,2024-10-10_19h29.42.261,visual search task,2024.1.5,None,2024-10-10 19h30.27.762448 +0530,
76,0,76,0,113.78210800001398,,113.75406430009753,5,113.78210800001398,113.78210800001398,0.018832200206816196,114.78184300009161,115.2332776999101,[0.325],[-0.27],[1],[0],[0],[1.4603438000194728],['target'],P2,001,2024-10-10_19h29.42.261,visual search task,2024.1.5,None,2024-10-10 19h30.27.762448 +0530,
77,0,77,0,115.28510949993506,,115.24105039983988,5,115.28510949993506,115.28510949993506,0.030543599743396044,116.33059429982677,117.03440020000562,[-0.445],[-0.25666666666666665],[1],[0],[0],[1.763857299927622],['target'],P2,001,2024-10-10_19h29.42.261,visual search task,2024.1.5,None,2024-10-10 19h30.27.762448 +0530,
78,0,78,0,117.08599349996075,,117.04235689993948,5,117.08599349996075,117.08599349996075,0.030220599845051765,118.0974623998627,118.5688014999032,[-0.27666666666666667],[0.295],[1],[0],[0],[1.4971586000174284],['target'],P2,001,2024-10-10_19h29.42.261,visual search task,2024.1.5,None,2024-10-10 19h30.27.762448 +0530,
79,0,79,0,118.62061029998586,,118.57676950003952,5,118.62061029998586,118.62061029998586,0.030657300259917974,119.66339180013165,119.9315766999498,[-0.17166666666666666],[-0.43833333333333335],[1],[0],[0],[1.325191100127995],[],P2,001,2024-10-10_19h29.42.261,visual search task,2024.1.5,None,2024-10-10 19h30.27.762448 +0530,
80,0,80,0,119.99961060006171,,119.93951429985464,10,119.99961060006171,119.99961060006171,0.046081400010734797,121.01430650008842,121.31649489980191,[-0.05],[-0.0033333333333333335],[1],[0],[0],[1.3321504001505673],['target'],P2,001,2024-10-10_19h29.42.261,visual search task,2024.1.5,None,2024-10-10 19h30.27.762448 +0530,
81,0,81,0,121.37170200003311,,121.3210212001577,10,121.37170200003311,121.37170200003311,0.03552269982174039,122.38088529976085,122.99885840015486,[-0.09166666666666666],[0.01],[1],[0],[0],[1.6426429999992251],['target'],P2,001,2024-10-10_19h29.42.261,visual search task,2024.1.5,None,2024-10-10 19h30.27.762448 +0530,
82,0,82,0,123.05098519986495,,123.00685520004481,5,123.05098519986495,123.05098519986495,0.030620599631220102,124.0648755999282,124.38240749994293,[0.03],[-0.08666666666666667],[1],[0],[0],[1.3462863001041114],['target'],P2,001,2024-10-10_19h29.42.261,visual search task,2024.1.5,None,2024-10-10 19h30.27.762448 +0530,
83,0,83,0,124.41528500011191,,124.38693659985438,5,124.41528500011191,124.41528500011191,0.018425299786031246,125.41484089987352,125.88268119981512,[-0.15666666666666668],[0.3516666666666667],[1],[0],[0],[1.4778464999981225],['target'],P2,001,2024-10-10_19h29.42.261,visual search task,2024.1.5,None,2024-10-10 19h30.27.762448 +0530,
84,0,84,0,125.9368452001363,,125.88712309999391,10,125.9368452001363,125.9368452001363,0.03463219990953803,126.94779939996079,127.51660790015012,[-0.39166666666666666],[0.44166666666666665],[1],[0],[0],[1.595357000362128],['target'],P2,001,2024-10-10_19h29.42.261,visual search task,2024.1.5,None,2024-10-10 19h30.27.762448 +0530,
85,0,85,0,127.57594509981573,,127.52110690018162,10,127.57594509981573,127.57594509981573,0.03857899969443679,128.61349020013586,130.2164679998532,[-0.18166666666666667],[0.4816666666666667],[1],[0],[0],[2.657101900316775],['target'],P2,001,2024-10-10_19h29.42.261,visual search task,2024.1.5,None,2024-10-10 19h30.27.762448 +0530,
86,0,86,0,130.26863030018285,,130.2244265000336,5,130.26863030018285,130.26863030018285,0.030856000259518623,,131.01665249979123,[-0.18166666666666667],[0.4816666666666667],[1],[0],[0],[0.7624558000825346],[],P2,001,2024-10-10_19h29.42.261,visual search task,2024.1.5,None,2024-10-10 19h30.27.762448 +0530,
87,0,87,0,131.06860450003296,,131.02432770002633,5,131.06860450003296,131.06860450003296,0.030775099992752075,132.0813392000273,132.68331159977242,[0.11833333333333333],[0.19666666666666666],[1],[0],[0],[1.6293517998419702],['target'],P2,001,2024-10-10_19h29.42.261,visual search task,2024.1.5,None,2024-10-10 19h30.27.762448 +0530,
88,0,88,0,132.71303380001336,,132.6877890001051,5,132.71303380001336,132.71303380001336,0.017005799803882837,133.71518249996006,134.1323195998557,[0.25],[-0.33166666666666667],[1],[0],[0],[1.4279442001134157],['target'],P2,001,2024-10-10_19h29.42.261,visual search task,2024.1.5,None,2024-10-10 19h30.27.762448 +0530,
89,0,89,0,134.16394589981064,,134.13676150003448,5,134.16394589981064,134.16394589981064,0.018420400097966194,135.16417350014672,135.59961290005594,[0.12166666666666667],[0.48833333333333334],[1],[0],[0],[1.4449375998228788],['target'],P2,001,2024-10-10_19h29.42.261,visual search task,2024.1.5,None,2024-10-10 19h30.27.762448 +0530,
90,0,90,0,135.63263050001115,,135.6041856999509,5,135.63263050001115,135.63263050001115,0.018866799771785736,136.63123800000176,137.26659790007398,[-0.3016666666666667],[0.13833333333333334],[1],[0],[0],[1.6440993999131024],['target'],P2,001,2024-10-10_19h29.42.261,visual search task,2024.1.5,None,2024-10-10 19h30.27.762448 +0530,
91,0,91,0,137.32476679980755,,137.27107990020886,10,137.32476679980755,137.32476679980755,0.037581900134682655,138.36343909986317,138.71813979977742,[-0.07666666666666666],[0.008333333333333333],[1],[0],[0],[1.409821500070393],['target'],P2,001,2024-10-10_19h29.42.261,visual search task,2024.1.5,None,2024-10-10 19h30.27.762448 +0530,
92,0,92,0,138.75923509988934,,138.7258855998516,5,138.75923509988934,138.75923509988934,0.025196800008416176,139.7653493997641,140.28341539995745,[0.28],[-0.47],[1],[0],[0],[1.5333561999723315],['target'],P2,001,2024-10-10_19h29.42.261,visual search task,2024.1.5,None,2024-10-10 19h30.27.762448 +0530,
93,0,93,0,140.35690259980038,,140.2915389998816,10,140.35690259980038,140.35690259980038,0.05267879972234368,141.38007949991152,141.84823150001466,[-0.30666666666666664],[-0.04666666666666667],[1],[0],[0],[1.5053813997656107],['target'],P2,001,2024-10-10_19h29.42.261,visual search task,2024.1.5,None,2024-10-10 19h30.27.762448 +0530,
94,0,94,0,141.91753209987655,,141.85616800002754,10,141.91753209987655,141.91753209987655,0.048985099885612726,142.96386480005458,143.36694849980995,[0.25666666666666665],[0.3883333333333333],[1],[0],[0],[1.463065099902451],['target'],P2,001,2024-10-10_19h29.42.261,visual search task,2024.1.5,None,2024-10-10 19h30.27.762448 +0530,
95,0,95,0,143.41991430008784,,143.37143949978054,10,143.41991430008784,143.41991430008784,0.03483540005981922,144.43163130013272,145.3319982001558,[-0.22333333333333333],[-0.44],[1],[0],[0],[1.9259974998421967],['target'],P2,001,2024-10-10_19h29.42.261,visual search task,2024.1.5,None,2024-10-10 19h30.27.762448 +0530,
96,0,96,0,145.3811940997839,,145.340008799918,5,145.3811940997839,145.3811940997839,0.030777400359511375,146.38104220014066,147.04971069982275,[0.13666666666666666],[0.043333333333333335],[1],[0],[0],[1.6802958003245294],['target'],P2,001,2024-10-10_19h29.42.261,visual search task,2024.1.5,None,2024-10-10 19h30.27.762448 +0530,
97,0,97,0,147.10283590015024,,147.05423570005223,10,147.10283590015024,147.10283590015024,0.03494039969518781,148.1466550999321,148.74834399996325,[-0.415],[0.49666666666666665],[1],[0],[0],[1.6595133999362588],['target'],P2,001,2024-10-10_19h29.42.261,visual search task,2024.1.5,None,2024-10-10 19h30.27.762448 +0530,
98,0,98,0,148.81915039988235,,148.7560041998513,10,148.81915039988235,148.81915039988235,0.04926390014588833,149.83064559986815,150.90056770015508,[0.4666666666666667],[0.43],[1],[0],[0],[2.0965211000293493],['target'],P2,001,2024-10-10_19h29.42.261,visual search task,2024.1.5,None,2024-10-10 19h30.27.762448 +0530,
99,0,99,0,150.93370330007747,,150.90547680016607,5,150.93370330007747,150.93370330007747,0.019095900002866983,151.96525570005178,153.5521761002019,[-0.24166666666666667],[0.06666666666666667],[1],[0],[0],[2.6278586997650564],['target'],P2,001,2024-10-10_19h29.42.261,visual search task,2024.1.5,None,2024-10-10 19h30.27.762448 +0530,
100,0,100,0,153.60034300014377,,153.5599086000584,5,153.60034300014377,153.60034300014377,0.030347800347954035,154.6144174998626,154.99970469996333,[0.41333333333333333],[0.09],[1],[0],[0],[1.4106833999976516],['target'],P2,001,2024-10-10_19h29.42.261,visual search task,2024.1.5,None,2024-10-10 19h30.27.762448 +0530,
101,0,101,0,155.05387189984322,,155.00422459980473,10,155.05387189984322,155.05387189984322,0.03517299983650446,156.08067349996418,156.7827610000968,[-0.13166666666666665],[0.37833333333333335],[1],[0],[0],[1.7436818997375667],['target'],P2,001,2024-10-10_19h29.42.261,visual search task,2024.1.5,None,2024-10-10 19h30.27.762448 +0530,
102,0,102,0,156.87236810009927,,156.79037849977612,10,156.87236810009927,156.87236810009927,0.05981140024960041,157.8969013998285,158.6002539000474,[-0.24666666666666667],[0.11833333333333333],[1],[0],[0],[1.7511714999563992],['target'],P2,001,2024-10-10_19h29.42.261,visual search task,2024.1.5,None,2024-10-10 19h30.27.762448 +0530,
103,0,103,0,158.6535601997748,,158.60474290000275,10,158.6535601997748,158.6535601997748,0.03393639996647835,159.66442540008575,160.6168583999388,[0.26666666666666666],[-0.15833333333333333],[1],[0],[0],[1.9786798004060984],['target'],P2,001,2024-10-10_19h29.42.261,visual search task,2024.1.5,None,2024-10-10 19h30.27.762448 +0530,
104,0,104,0,160.67339889984578,,160.62138319993392,10,160.67339889984578,160.67339889984578,0.03735789982602,161.69687009975314,162.59974869992584,[0.10166666666666667],[-0.20333333333333334],[1],[0],[0],[1.9413427002727985],['target'],P2,001,2024-10-10_19h29.42.261,visual search task,2024.1.5,None,2024-10-10 19h30.27.762448 +0530,
105,0,105,0,162.68804450007156,,162.60751040000468,10,162.68804450007156,162.68804450007156,0.059660700149834156,163.71365709975362,163.91508459998295,[0.35333333333333333],[-0.25666666666666665],[1],[0],[0],[1.2489534001797438],['target'],P2,001,2024-10-10_19h29.42.261,visual search task,2024.1.5,None,2024-10-10 19h30.27.762448 +0530,
106,0,106,0,163.99327010009438,,163.9227454997599,10,163.99327010009438,163.99327010009438,0.05668159993365407,165.03006569994614,165.94874210003763,[-0.045],[-0.44166666666666665],[1],[0],[0],[1.9705938999541104],['target'],P2,001,2024-10-10_19h29.42.261,visual search task,2024.1.5,None,2024-10-10 19h30.27.762448 +0530,
107,0,107,0,166.00436590006575,,165.95325949974358,10,166.00436590006575,166.00436590006575,0.03690920025110245,167.01577300019562,167.9824271001853,[-0.4633333333333333],[-0.23833333333333334],[1],[0],[0],[1.9927218002267182],['target'],P2,001,2024-10-10_19h29.42.261,visual search task,2024.1.5,None,2024-10-10 19h30.27.762448 +0530,
108,0,108,0,168.03447770001367,,167.98694889992476,10,168.03447770001367,168.03447770001367,0.03339779982343316,169.07981379982084,175.13265859987587,[-0.21666666666666667],[0.3983333333333333],[1],[0],[0],[7.112844400107861],['target'],P2,001,2024-10-10_19h29.42.261,visual search task,2024.1.5,None,2024-10-10 19h30.27.762448 +0530,
109,0,109,0,175.16414890019223,,175.1373574999161,5,175.16414890019223,175.16414890019223,0.01806329982355237,176.1815522001125,177.80006449995562,[0.29333333333333333],[0.115],[1],[0],[0],[2.6449727998115122],['target'],P2,001,2024-10-10_19h29.42.261,visual search task,2024.1.5,None,2024-10-10 19h30.27.762448 +0530,
110,0,110,0,177.86627219989896,,177.80779589992017,10,177.86627219989896,177.86627219989896,0.044758399948477745,178.89665899984539,179.63237460004166,[-0.305],[0.02666666666666667],[1],[0],[0],[1.7810188001021743],['target'],P2,001,2024-10-10_19h29.42.261,visual search task,2024.1.5,None,2024-10-10 19h30.27.762448 +0530,
111,0,111,0,179.66517789987847,,179.6369586000219,5,179.66517789987847,179.66517789987847,0.01865459978580475,180.6643523001112,181.18196099996567,[0.30666666666666664],[-0.43],[1],[0],[0],[1.5268655000254512],['target'],P2,001,2024-10-10_19h29.42.261,visual search task,2024.1.5,None,2024-10-10 19h30.27.762448 +0530,
112,0,112,0,181.23575299978256,,181.18643159978092,10,181.23575299978256,181.23575299978256,0.034869200084358454,182.26326079992577,182.73272439977154,[0.11833333333333333],[0.31666666666666665],[1],[0],[0],[1.5117534999735653],['target'],P2,001,2024-10-10_19h29.42.261,visual search task,2024.1.5,None,2024-10-10 19h30.27.762448 +0530,
113,0,113,0,182.7862539999187,,182.74052760004997,5,182.7862539999187,182.7862539999187,0.03193959966301918,183.79794010007754,184.83347469987348,[-0.49833333333333335],[0.41],[1],[0],[0],[2.0621517999097705],['target'],P2,001,2024-10-10_19h29.42.261,visual search task,2024.1.5,None,2024-10-10 19h30.27.762448 +0530,
114,0,114,0,184.867031800095,,184.8379615000449,5,184.867031800095,184.867031800095,0.01887729996815324,185.88231700006872,186.2845367998816,[-0.24],[-0.25333333333333335],[1],[0],[0],[1.428015099838376],['target'],P2,001,2024-10-10_19h29.42.261,visual search task,2024.1.5,None,2024-10-10 19h30.27.762448 +0530,
115,0,115,0,186.36441429983824,,186.29213330009952,10,186.36441429983824,186.36441429983824,0.056996299885213375,187.3968270001933,188.36657830001786,[-0.42],[-0.31166666666666665],[1],[0],[0],[2.01862240023911],['target'],P2,001,2024-10-10_19h29.42.261,visual search task,2024.1.5,None,2024-10-10 19h30.27.762448 +0530,
116,0,116,0,188.42068320000544,,188.37105679977685,10,188.42068320000544,188.42068320000544,0.034534000325948,189.43117510015145,189.94890529988334,[-0.25666666666666665],[-0.215],[1],[0],[0],[1.543792000040412],['target'],P2,001,2024-10-10_19h29.42.261,visual search task,2024.1.5,None,2024-10-10 19h30.27.762448 +0530,
117,0,117,0,190.00344640016556,,189.9534267000854,10,190.00344640016556,190.00344640016556,0.03514599986374378,191.04696509987116,191.94971349975094,[0.3466666666666667],[0.48],[1],[0],[0],[1.961394099984318],['target'],P2,001,2024-10-10_19h29.42.261,visual search task,2024.1.5,None,2024-10-10 19h30.27.762448 +0530,
118,0,118,0,191.9977164999582,,191.9574023000896,5,191.9977164999582,191.9977164999582,0.02869539987295866,193.01530200010166,193.8351026000455,[0.24666666666666667],[-0.47333333333333333],[1],[0],[0],[1.8498292001895607],['target'],P2,001,2024-10-10_19h29.42.261,visual search task,2024.1.5,None,2024-10-10 19h30.27.762448 +0530,
119,0,119,0,193.90898999990895,,193.84290330018848,10,193.90898999990895,193.90898999990895,0.051856699865311384,194.94628390017897,195.36491840006784,[0.03833333333333333],[0.405],[1],[0],[0],[1.4712220001965761],['target'],P2,001,2024-10-10_19h29.42.261,visual search task,2024.1.5,None,2024-10-10 19h30.27.762448 +0530,
120,0,120,0,195.41684960015118,,195.37271270016208,5,195.41684960015118,195.41684960015118,0.031451799906790257,196.43192420015112,196.93330689985305,[-0.265],[0.04666666666666667],[1],[0],[0],[1.5301097999326885],['target'],P2,001,2024-10-10_19h29.42.261,visual search task,2024.1.5,None,2024-10-10 19h30.27.762448 +0530,
121,0,121,0,196.97991140000522,,196.94097850006074,5,196.97991140000522,196.97991140000522,0.028321700170636177,197.98067629989237,198.44930850015953,[-0.27166666666666667],[0.33],[1],[0],[0],[1.481174100190401],['target'],P2,001,2024-10-10_19h29.42.261,visual search task,2024.1.5,None,2024-10-10 19h30.27.762448 +0530,
122,0,122,0,198.48159850016236,,198.45375780016184,5,198.48159850016236,198.48159850016236,0.018339400179684162,199.49717570003122,200.4149929000996,[-0.3516666666666667],[-0.48],[1],[0],[0],[1.9431801000609994],['target'],P2,001,2024-10-10_19h29.42.261,visual search task,2024.1.5,None,2024-10-10 19h30.27.762448 +0530,
123,0,123,0,200.46747160004452,,200.42281919997185,5,200.46747160004452,200.46747160004452,0.030937999952584505,201.49832719983533,201.71740469988436,[0.06833333333333333],[-0.315],[1],[0],[0],[1.264766599982977],['target'],P2,001,2024-10-10_19h29.42.261,visual search task,2024.1.5,None,2024-10-10 19h30.27.762448 +0530,
124,0,124,0,201.79329210007563,,201.72515540011227,10,201.79329210007563,201.79329210007563,0.055179799906909466,202.8301365999505,203.56476859981194,[-0.44333333333333336],[-0.27666666666666667],[1],[0],[0],[1.7856637998484075],['target'],P2,001,2024-10-10_19h29.42.261,visual search task,2024.1.5,None,2024-10-10 19h30.27.762448 +0530,
125,0,125,0,203.60196910006925,,203.56931940000504,5,203.60196910006925,203.60196910006925,0.019687300082296133,204.64707679999992,205.51645419979468,[0.315],[0.49833333333333335],[1],[0],[0],[1.92777380021289],['target'],P2,001,2024-10-10_19h29.42.261,visual search task,2024.1.5,None,2024-10-10 19h30.27.762448 +0530,
126,0,126,0,205.5617438000627,,205.52426810003817,5,205.5617438000627,205.5617438000627,0.028725899755954742,,206.29901499999687,[0.315],[0.46166666666666667],[1],[0],[0],[0.7472985000349581],['target'],P2,001,2024-10-10_19h29.42.261,visual search task,2024.1.5,None,2024-10-10 19h30.27.762448 +0530,
127,0,127,0,206.35341570014134,,206.30356740020216,10,206.35341570014134,206.35341570014134,0.03520080028101802,207.36382249975577,208.06521689984947,[0.475],[0.325],[1],[0],[0],[1.7269918997772038],['target'],P2,001,2024-10-10_19h29.42.261,visual search task,2024.1.5,None,2024-10-10 19h30.27.762448 +0530,
128,0,128,0,208.12025680020452,,208.06975079979748,10,208.12025680020452,208.12025680020452,0.03570339968428016,209.1464928998612,210.54875760013238,[0.49],[-0.35833333333333334],[1],[0],[0],[2.443801600020379],['target'],P2,001,2024-10-10_19h29.42.261,visual search task,2024.1.5,None,2024-10-10 19h30.27.762448 +0530,
129,0,129,0,210.58472240017727,,210.5532855000347,5,210.58472240017727,210.58472240017727,0.018382400274276733,211.61472260020673,211.83366859983653,[-0.24],[0.3233333333333333],[1],[0],[0],[1.262506800238043],['target'],P2,001,2024-10-10_19h29.42.261,visual search task,2024.1.5,None,2024-10-10 19h30.27.762448 +0530,
130,0,130,0,211.88793409988284,,211.83824379974976,10,211.88793409988284,211.88793409988284,0.03551600035279989,212.89809089992195,214.36578969983384,[-0.275],[0.10333333333333333],[1],[0],[0],[2.492590299807489],['target'],P2,001,2024-10-10_19h29.42.261,visual search task,2024.1.5,None,2024-10-10 19h30.27.762448 +0530,
131,0,131,0,214.39762549987063,,214.37026849994436,5,214.39762549987063,214.39762549987063,0.01858480041846633,215.39748140005395,215.73273470019922,[-0.21666666666666667],[0.185],[1],[0],[0],[1.3442905000410974],['target'],P2,001,2024-10-10_19h29.42.261,visual search task,2024.1.5,None,2024-10-10 19h30.27.762448 +0530,
132,0,132,0,215.78624070016667,,215.73722920008004,10,215.78624070016667,215.78624070016667,0.03544590016826987,216.81354210013524,217.8815727001056,[0.49166666666666664],[0.23666666666666666],[1],[0],[0],[2.109161799773574],['target'],P2,001,2024-10-10_19h29.42.261,visual search task,2024.1.5,None,2024-10-10 19h30.27.762448 +0530,
133,0,133,0,217.9451175997965,,217.88940679980442,10,217.9451175997965,217.9451175997965,0.04308159975335002,218.94733130000532,219.7985180998221,[-0.49166666666666664],[-0.041666666666666664],[1],[0],[0],[1.8672831002622843],['target'],P2,001,2024-10-10_19h29.42.261,visual search task,2024.1.5,None,2024-10-10 19h30.27.762448 +0530,
134,0,134,0,219.82986890012398,,219.8030527997762,5,219.82986890012398,219.82986890012398,0.01807320024818182,220.84890289977193,222.1001536999829,[0.27166666666666667],[0.42333333333333334],[1],[0],[0],[2.279458499979228],['target'],P2,001,2024-10-10_19h29.42.261,visual search task,2024.1.5,None,2024-10-10 19h30.27.762448 +0530,
135,0,135,0,222.13276989990845,,222.10475250007585,5,222.13276989990845,222.13276989990845,0.019544100388884544,223.13190149981529,223.50115010002628,[0.32166666666666666],[0.075],[1],[0],[0],[1.37721629999578],['target'],P2,001,2024-10-10_19h29.42.261,visual search task,2024.1.5,None,2024-10-10 19h30.27.762448 +0530,
136,0,136,0,223.55322480015457,,223.50880499975756,5,223.55322480015457,223.55322480015457,0.030899399891495705,224.56455209990963,225.10043590003625,[-0.04],[-0.09166666666666666],[1],[0],[0],[1.561789599712938],['target'],P2,001,2024-10-10_19h29.42.261,visual search task,2024.1.5,None,2024-10-10 19h30.27.762448 +0530,
137,0,137,0,225.13522410020232,,225.10512119997293,5,225.13522410020232,225.13522410020232,0.019404999911785126,226.14756429987028,226.783110300079,[0.07666666666666666],[0.055],[1],[0],[0],[1.6589242001064122],['target'],P2,001,2024-10-10_19h29.42.261,visual search task,2024.1.5,None,2024-10-10 19h30.27.762448 +0530,
138,0,138,0,226.82964230002835,,226.79081190004945,5,226.82964230002835,226.82964230002835,0.028225999791175127,227.83096370007843,228.41622339980677,[-0.12166666666666667],[-0.12333333333333334],[1],[0],[0],[1.5983887002803385],['target'],P2,001,2024-10-10_19h29.42.261,visual search task,2024.1.5,None,2024-10-10 19h30.27.762448 +0530,
139,0,139,0,228.4692615000531,,228.42069549998268,10,228.4692615000531,228.4692615000531,0.033970499876886606,229.48170629981905,229.86673930007964,[0.44666666666666666],[0.30833333333333335],[1],[0],[0],[1.412576800212264],['target'],P2,001,2024-10-10_19h29.42.261,visual search task,2024.1.5,None,2024-10-10 19h30.27.762448 +0530,
140,0,140,0,229.90008240006864,,229.87126719998196,5,229.90008240006864,229.90008240006864,0.018646300304681063,230.9148082002066,231.78398629976436,[0.09333333333333334],[-0.37166666666666665],[1],[0],[0],[1.8945828001014888],['target'],P2,001,2024-10-10_19h29.42.261,visual search task,2024.1.5,None,2024-10-10 19h30.27.762448 +0530,
141,0,141,0,231.83655040012673,,231.78844089992344,10,231.83655040012673,231.83655040012673,0.03213970037177205,232.8799112001434,233.71485659992322,[-0.43333333333333335],[0.43833333333333335],[1],[0],[0],[1.8946361001580954],['target'],P2,001,2024-10-10_19h29.42.261,visual search task,2024.1.5,None,2024-10-10 19h30.27.762448 +0530,
142,0,142,0,233.81497870013118,,233.7226106999442,10,233.81497870013118,233.81497870013118,0.07170889992266893,234.83088940009475,235.39981869980693,[-0.335],[-0.48],[1],[0],[0],[1.6066709998995066],['target'],P2,001,2024-10-10_19h29.42.261,visual search task,2024.1.5,None,2024-10-10 19h30.27.762448 +0530,
143,0,143,0,235.43162610009313,,235.40441319998354,5,235.43162610009313,235.43162610009313,0.018181900028139353,236.43189449980855,236.84890920016915,[-0.035],[-0.4116666666666667],[1],[0],[0],[1.4268078999593854],['target'],P2,001,2024-10-10_19h29.42.261,visual search task,2024.1.5,None,2024-10-10 19h30.27.762448 +0530,
144,0,144,0,236.8985028997995,,236.8533366001211,10,236.8985028997995,236.8985028997995,0.031995899975299835,237.9298816001974,238.3333713999018,[-0.40166666666666667],[0.20166666666666666],[1],[0],[0],[1.448157100006938],['target'],P2,001,2024-10-10_19h29.42.261,visual search task,2024.1.5,None,2024-10-10 19h30.27.762448 +0530,
145,0,145,0,238.40410679997876,,238.34141420014203,10,238.40410679997876,238.40410679997876,0.049203500151634216,239.4465454998426,240.04853319982067,[0.0],[-0.17333333333333334],[1],[0],[0],[1.659044399857521],['target'],P2,001,2024-10-10_19h29.42.261,visual search task,2024.1.5,None,2024-10-10 19h30.27.762448 +0530,
146,0,146,0,240.12723209988326,,240.05647539999336,10,240.12723209988326,240.12723209988326,0.058018799871206284,241.16398969991133,241.7983800000511,[0.275],[0.06333333333333334],[1],[0],[0],[1.6848983997479081],['target'],P2,001,2024-10-10_19h29.42.261,visual search task,2024.1.5,None,2024-10-10 19h30.27.762448 +0530,
147,0,147,0,241.8746373001486,,241.80613819975406,10,241.8746373001486,241.8746373001486,0.05574170034378767,242.91517799999565,243.1642248998396,[-0.24666666666666667],[0.185],[1],[0],[0],[1.30352389998734],['target'],P2,001,2024-10-10_19h29.42.261,visual search task,2024.1.5,None,2024-10-10 19h30.27.762448 +0530,
148,0,148,0,243.21823929995298,,243.16899849986658,10,243.21823929995298,243.21823929995298,0.035009199753403664,244.2632301999256,244.83328639995307,[0.2633333333333333],[-0.46],[1],[0],[0],[1.6296303002163768],['target'],P2,001,2024-10-10_19h29.42.261,visual search task,2024.1.5,None,2024-10-10 19h30.27.762448 +0530,
149,0,149,0,244.8840025998652,,244.84097399981692,5,244.8840025998652,244.8840025998652,0.02902609994634986,245.8972995998338,246.71681960020214,[0.4483333333333333],[-0.125],[1],[0],[0],[1.8477804996073246],['target'],P2,001,2024-10-10_19h29.42.261,visual search task,2024.1.5,None,2024-10-10 19h30.27.762448 +0530,
150,0,150,0,246.75783770019189,,246.72444130014628,5,246.75783770019189,246.75783770019189,0.025461799930781126,247.76420910004526,248.76646670000628,[0.395],[-0.29],[1],[0],[0],[2.0175731000490487],['target'],P2,001,2024-10-10_19h29.42.261,visual search task,2024.1.5,None,2024-10-10 19h30.27.762448 +0530,
151,0,151,0,248.8355074999854,,248.77412459999323,10,248.8355074999854,248.8355074999854,0.04908700007945299,249.8631593999453,250.23222720017657,[-0.30666666666666664],[0.1],[1],[0],[0],[1.4102010000497103],['target'],P2,001,2024-10-10_19h29.42.261,visual search task,2024.1.5,None,2024-10-10 19h30.27.762448 +0530,
152,0,152,0,250.26531879976392,,250.2367801000364,5,250.26531879976392,250.26531879976392,0.018413000274449587,251.28077509999275,251.68332999991253,[-0.155],[0.37833333333333335],[1],[0],[0],[1.428550399839878],['target'],P2,001,2024-10-10_19h29.42.261,visual search task,2024.1.5,None,2024-10-10 19h30.27.762448 +0530,
153,0,153,0,251.719740500208,,251.6910076001659,5,251.719740500208,251.719740500208,0.020420599728822708,252.73141090013087,252.80020439997315,[-0.17333333333333334],[0.023333333333333334],[1],[0],[0],[1.0898978998884559],['target'],P2,001,2024-10-10_19h29.42.261,visual search task,2024.1.5,None,2024-10-10 19h30.27.762448 +0530,
154,0,154,0,252.8643515999429,,252.80803450010717,10,252.8643515999429,252.8643515999429,0.043570700101554394,253.86380829988047,254.7486402001232,[0.2],[-0.14333333333333334],[1],[0],[0],[1.898299400229007],['target'],P2,001,2024-10-10_19h29.42.261,visual search task,2024.1.5,None,2024-10-10 19h30.27.762448 +0530,
155,0,155,0,254.7809764998965,,254.75317109981552,5,254.7809764998965,254.7809764998965,0.019153200089931488,255.78183300001547,255.96651559974998,[0.23333333333333334],[-0.3616666666666667],[1],[0],[0],[1.1945754000917077],['target'],P2,001,2024-10-10_19h29.42.261,visual search task,2024.1.5,None,2024-10-10 19h30.27.762448 +0530,
156,0,156,0,256.04327359981835,,255.97425949992612,10,256.04327359981835,256.04327359981835,0.052408500108867884,257.0471004000865,258.06536810006946,[-0.10833333333333334],[-0.37833333333333335],[1],[0],[0],[2.039960500318557],['target'],P2,001,2024-10-10_19h29.42.261,visual search task,2024.1.5,None,2024-10-10 19h30.27.762448 +0530,
157,0,157,0,258.1010146001354,,258.06987620005384,5,258.1010146001354,258.1010146001354,0.021634799893945456,259.11420870013535,259.6349559999071,[-0.10333333333333333],[0.12],[1],[0],[0],[1.5438633998855948],['target'],P2,001,2024-10-10_19h29.42.261,visual search task,2024.1.5,None,2024-10-10 19h30.27.762448 +0530,
158,0,158,0,259.685377900023,,259.6393786999397,10,259.685377900023,259.685377900023,0.03236409975215793,260.6973961000331,262.3654686999507,[0.07666666666666666],[-0.225],[1],[0],[0],[2.6942892000079155],['target'],P2,001,2024-10-10_19h29.42.261,visual search task,2024.1.5,None,2024-10-10 19h30.27.762448 +0530,
159,0,159,0,262.4208860001527,,262.36993419984356,10,262.4208860001527,262.4208860001527,0.03632649965584278,263.4463884001598,264.1827325997874,[0.26166666666666666],[-0.3883333333333333],[1],[0],[0],[1.7769889999181032],['target'],P2,001,2024-10-10_19h29.42.261,visual search task,2024.1.5,None,2024-10-10 19h30.27.762448 +0530,
160,0,160,0,264.21484899986535,,264.1872819000855,5,264.21484899986535,264.21484899986535,0.018918999936431646,265.2303868001327,266.01556070009246,[-0.39166666666666666],[-0.37666666666666665],[1],[0],[0],[1.8099014000035822],['target'],P2,001,2024-10-10_19h29.42.261,visual search task,2024.1.5,None,2024-10-10 19h30.27.762448 +0530,
161,0,161,0,266.0717062000185,,266.01999829988927,10,266.0717062000185,266.0717062000185,0.035235199611634016,267.08044379996136,268.18326009996235,[0.46166666666666667],[-0.24166666666666667],[1],[0],[0],[2.1285321000032127],['target'],P2,001,2024-10-10_19h29.42.261,visual search task,2024.1.5,None,2024-10-10 19h30.27.762448 +0530,
162,0,162,0,268.237941800151,,268.1877366001718,10,268.237941800151,268.237941800151,0.03553909994661808,269.2485659001395,269.9318904001266,[0.4583333333333333],[0.225],[1],[0],[0],[1.7089992999099195],['target'],P2,001,2024-10-10_19h29.42.261,visual search task,2024.1.5,None,2024-10-10 19h30.27.762448 +0530,
163,0,163,0,269.9746527997777,,269.93959139985964,5,269.9746527997777,269.9746527997777,0.027296900283545256,270.9811607999727,271.48263299977407,[0.15833333333333333],[0.45166666666666666],[1],[0],[0],[1.5168127999641001],['target'],P2,001,2024-10-10_19h29.42.261,visual search task,2024.1.5,None,2024-10-10 19h30.27.762448 +0530,
164,0,164,0,271.55151459993795,,271.4902671999298,10,271.55151459993795,271.55151459993795,0.04803550010547042,272.56425989978015,272.86491099977866,[-0.10166666666666667],[0.12666666666666668],[1],[0],[0],[1.327720200177282],['target'],P2,001,2024-10-10_19h29.42.261,visual search task,2024.1.5,None,2024-10-10 19h30.27.762448 +0530,
165,0,165,0,272.8964904001914,,272.86941729998216,5,272.8964904001914,272.8964904001914,0.01858970010653138,273.8995468998328,274.4664781000465,[-0.49166666666666664],[-0.4166666666666667],[1],[0],[0],[1.5788336996920407],['target'],P2,001,2024-10-10_19h29.42.261,visual search task,2024.1.5,None,2024-10-10 19h30.27.762448 +0530,
166,0,166,0,274.54367619985715,,274.4743409999646,10,274.54367619985715,274.54367619985715,0.05475550005212426,275.5798312998377,276.18326009996235,[-0.21333333333333335],[0.43833333333333335],[1],[0],[0],[1.6551851998083293],['target'],P2,001,2024-10-10_19h29.42.261,visual search task,2024.1.5,None,2024-10-10 19h30.27.762448 +0530,
167,0,167,0,276.23511319980025,,276.1910203997977,5,276.23511319980025,276.23511319980025,0.02987070009112358,277.2481702999212,277.91835199994966,[-0.34833333333333333],[0.47333333333333333],[1],[0],[0],[1.698417800012976],['target'],P2,001,2024-10-10_19h29.42.261,visual search task,2024.1.5,None,2024-10-10 19h30.27.762448 +0530,
168,0,168,0,277.99488440016285,,277.92595109995455,10,277.99488440016285,277.99488440016285,0.05485539976507425,279.03021290013567,279.89961310010403,[-0.31],[0.041666666666666664],[1],[0],[0],[1.919771899934858],['target'],P2,001,2024-10-10_19h29.42.261,visual search task,2024.1.5,None,2024-10-10 19h30.27.762448 +0530,
169,0,169,0,279.98820480005816,,279.9072672999464,10,279.98820480005816,279.98820480005816,0.05854649981483817,281.01320629986003,282.76504560001194,[-0.09166666666666666],[-0.45],[1],[0],[0],[2.8002039999701083],['target'],P2,001,2024-10-10_19h29.42.261,visual search task,2024.1.5,None,2024-10-10 19h30.27.762448 +0530,
170,0,170,0,282.85257400013506,,282.7728709997609,10,282.85257400013506,282.85257400013506,0.057979400269687176,283.880007899832,284.51495519978926,[-0.23166666666666666],[0.49833333333333335],[1],[0],[0],[1.6852045999839902],['target'],P2,001,2024-10-10_19h29.42.261,visual search task,2024.1.5,None,2024-10-10 19h30.27.762448 +0530,
171,0,171,0,284.5797799001448,,284.5228341999464,10,284.5797799001448,284.5797799001448,0.04406179999932647,285.5811975998804,286.1490067001432,[-0.2816666666666667],[0.051666666666666666],[1],[0],[0],[1.5832403004169464],['target'],P2,001,2024-10-10_19h29.42.261,visual search task,2024.1.5,None,2024-10-10 19h30.27.762448 +0530,
172,0,172,0,286.21803840016946,,286.1567150000483,10,286.21803840016946,286.21803840016946,0.0485339998267591,287.23070299997926,287.38179400004447,[-0.10166666666666667],[0.4066666666666667],[1],[0],[0],[1.1777878003194928],['target'],P2,001,2024-10-10_19h29.42.261,visual search task,2024.1.5,None,2024-10-10 19h30.27.762448 +0530,
173,0,173,0,287.41436510020867,,287.38631020020694,5,287.41436510020867,287.41436510020867,0.018854999914765358,288.4308107001707,289.08270689984784,[0.37666666666666665],[-0.14333333333333334],[1],[0],[0],[1.6780646997503936],['target'],P2,001,2024-10-10_19h29.42.261,visual search task,2024.1.5,None,2024-10-10 19h30.27.762448 +0530,
174,0,174,0,289.1390375997871,,289.0872506001033,10,289.1390375997871,289.1390375997871,0.03675410011783242,290.1479519000277,290.74770209984854,[-0.405],[-0.03],[1],[0],[0],[1.6242080996744335],['target'],P2,001,2024-10-10_19h29.42.261,visual search task,2024.1.5,None,2024-10-10 19h30.27.762448 +0530,
175,0,175,0,290.8031298997812,,290.7522088000551,10,290.8031298997812,290.8031298997812,0.03521970007568598,291.81401679990813,292.31692950008437,[-0.175],[-0.45],[1],[0],[0],[1.5300174001604319],['target'],P2,001,2024-10-10_19h29.42.261,visual search task,2024.1.5,None,2024-10-10 19h30.27.762448 +0530,
176,0,176,0,292.34970209980384,,292.3213884001598,5,292.34970209980384,292.34970209980384,0.018503000028431416,293.3642453998327,293.46574690006673,[-0.19833333333333333],[-0.31],[1],[0],[0],[1.126368099823594],['target'],P2,001,2024-10-10_19h29.42.261,visual search task,2024.1.5,None,2024-10-10 19h30.27.762448 +0530,
177,0,177,0,293.5738578001037,,293.47035320010036,10,293.5738578001037,293.5738578001037,0.03694319957867265,294.5805672002025,295.36557519994676,[-0.10166666666666667],[-0.025],[1],[0],[0],[1.8588343998417258],['target'],P2,001,2024-10-10_19h29.42.261,visual search task,2024.1.5,None,2024-10-10 19h30.27.762448 +0530,
178,0,178,0,295.39766300003976,,295.3700354998,5,295.39766300003976,295.39766300003976,0.01864330004900694,296.39702690020204,296.783450699877,[0.43333333333333335],[0.0],[1],[0],[0],[1.3951364001259208],['target'],P2,001,2024-10-10_19h29.42.261,visual search task,2024.1.5,None,2024-10-10 19h30.27.762448 +0530,
179,0,179,0,296.81607470009476,,296.78835499985144,5,296.81607470009476,296.81607470009476,0.018216799944639206,297.8307917001657,298.4695604997687,[-0.4816666666666667],[0.0016666666666666668],[1],[0],[0],[1.6634202999994159],['target'],P2,001,2024-10-10_19h29.42.261,visual search task,2024.1.5,None,2024-10-10 19h30.27.762448 +0530,
180,0,180,0,298.52284929994494,,298.47401699982584,10,298.52284929994494,298.52284929994494,0.034252299927175045,299.53055790020153,300.23199089989066,[0.26166666666666666],[0.32666666666666666],[1],[0],[0],[1.7241735998541117],['target'],P2,001,2024-10-10_19h29.42.261,visual search task,2024.1.5,None,2024-10-10 19h30.27.762448 +0530,
181,0,181,0,300.2880176999606,,300.23657399974763,10,300.2880176999606,300.2880176999606,0.0361887002363801,301.29723659995943,302.09868909977376,[-0.041666666666666664],[0.4816666666666667],[1],[0],[0],[1.8261916995979846],['target'],P2,001,2024-10-10_19h29.42.261,visual search task,2024.1.5,None,2024-10-10 19h30.27.762448 +0530,
182,0,182,0,302.14796799980104,,302.10631409985945,5,302.14796799980104,302.14796799980104,0.028441499918699265,303.18161919992417,304.1334414999001,[0.11],[-0.445],[1],[0],[0],[1.9997919998131692],['target'],P2,001,2024-10-10_19h29.42.261,visual search task,2024.1.5,None,2024-10-10 19h30.27.762448 +0530,
183,0,183,0,304.1845335997641,,304.13797269994393,10,304.1845335997641,304.1845335997641,0.03324600029736757,305.19752389984205,305.38341420004144,[0.20333333333333334],[-0.13166666666666665],[1],[0],[0],[1.2127247997559607],['target'],P2,001,2024-10-10_19h29.42.261,visual search task,2024.1.5,None,2024-10-10 19h30.27.762448 +0530,
184,0,184,0,305.4153065998107,,305.38788209995255,5,305.4153065998107,305.4153065998107,0.018526599742472172,306.4309243997559,307.08239739993587,[0.43333333333333335],[-0.43],[1],[0],[0],[1.6765014003030956],['target'],P2,001,2024-10-10_19h29.42.261,visual search task,2024.1.5,None,2024-10-10 19h30.27.762448 +0530,
185,0,185,0,307.13920049974695,,307.08695959998295,10,307.13920049974695,307.13920049974695,0.03544260002672672,308.1473059998825,308.99802289996296,[-0.36666666666666664],[0.42333333333333334],[1],[0],[0],[1.8761339001357555],['target'],P2,001,2024-10-10_19h29.42.261,visual search task,2024.1.5,None,2024-10-10 19h30.27.762448 +0530,
186,0,186,0,309.05308330012485,,309.00250719999894,10,309.05308330012485,309.05308330012485,0.03449440002441406,310.0804983000271,310.6666760998778,[0.32],[-0.245],[1],[0],[0],[1.6301490999758244],['target'],P2,001,2024-10-10_19h29.42.261,visual search task,2024.1.5,None,2024-10-10 19h30.27.762448 +0530,
187,0,187,0,310.7214182000607,,310.67121549975127,10,310.7214182000607,310.7214182000607,0.035996099933981895,311.73063209978864,312.98301489977166,[-0.48833333333333334],[-0.27166666666666667],[1],[0],[0],[2.2761018997989595],['target'],P2,001,2024-10-10_19h29.42.261,visual search task,2024.1.5,None,2024-10-10 19h30.27.762448 +0530,
188,0,188,0,313.0605982998386,,312.99077859986573,10,313.0605982998386,313.0605982998386,0.05618479987606406,314.0799711002037,316.01513089984655,[-0.305],[0.49],[1],[0],[0],[2.9692043997347355],['target'],P2,001,2024-10-10_19h29.42.261,visual search task,2024.1.5,None,2024-10-10 19h30.27.762448 +0530,
189,0,189,0,316.0918116001412,,316.02280090004206,10,316.0918116001412,316.0918116001412,0.05520580010488629,317.0976796001196,317.69856429984793,[0.47333333333333333],[0.22],[1],[0],[0],[1.6218166002072394],['target'],P2,001,2024-10-10_19h29.42.261,visual search task,2024.1.5,None,2024-10-10 19h30.27.762448 +0530,
190,0,190,0,317.7553746001795,,317.7032391000539,10,317.7553746001795,317.7553746001795,0.03714870009571314,318.76389870001003,319.3983485000208,[-0.175],[0.03333333333333333],[1],[0],[0],[1.6586789996363223],['target'],P2,001,2024-10-10_19h29.42.261,visual search task,2024.1.5,None,2024-10-10 19h30.27.762448 +0530,
191,0,191,0,319.4515702999197,,319.4028896000236,10,319.4515702999197,319.4515702999197,0.03480280004441738,320.49636969994754,321.26624430017546,[0.016666666666666666],[0.32],[1],[0],[0],[1.8288797000423074],['target'],P2,001,2024-10-10_19h29.42.261,visual search task,2024.1.5,None,2024-10-10 19h30.27.762448 +0530,
192,0,192,0,321.3093904000707,,321.2739409999922,5,321.3093904000707,321.3093904000707,0.027215200010687113,322.3161137001589,323.5331524000503,[-0.4166666666666667],[-0.37166666666666665],[1],[0],[0],[2.2329355999827385],['target'],P2,001,2024-10-10_19h29.42.261,visual search task,2024.1.5,None,2024-10-10 19h30.27.762448 +0530,
193,0,193,0,323.58475290006027,,323.54075929988176,5,323.58475290006027,323.58475290006027,0.0303787998855114,324.5973987998441,325.4329689000733,[0.058333333333333334],[0.495],[1],[0],[0],[1.8629744998179376],['target'],P2,001,2024-10-10_19h29.42.261,visual search task,2024.1.5,None,2024-10-10 19h30.27.762448 +0530,
194,0,194,0,325.46477020019665,,325.4374762000516,5,325.46477020019665,325.46477020019665,0.018263700418174267,326.49649540008977,326.8850551000796,[0.07666666666666666],[0.38333333333333336],[1],[0],[0],[1.4296838999725878],['target'],P2,001,2024-10-10_19h29.42.261,visual search task,2024.1.5,None,2024-10-10 19h30.27.762448 +0530,
195,0,195,0,326.93608509982005,,326.8926669000648,5,326.93608509982005,326.93608509982005,0.030189000070095062,327.94759949995205,328.5498732998967,[-0.011666666666666667],[-0.24166666666666667],[1],[0],[0],[1.6280308002606034],['target'],P2,001,2024-10-10_19h29.42.261,visual search task,2024.1.5,None,2024-10-10 19h30.27.762448 +0530,
196,0,196,0,328.6296926001087,,328.5577683998272,10,328.6296926001087,328.6296926001087,0.05837429966777563,329.6469944999553,329.8147301999852,[-0.32166666666666666],[-0.22],[1],[0],[0],[1.1996893999166787],['target'],P2,001,2024-10-10_19h29.42.261,visual search task,2024.1.5,None,2024-10-10 19h30.27.762448 +0530,
197,0,197,0,329.86765799997374,,329.82253219978884,5,329.86765799997374,329.86765799997374,0.031504500191658735,330.8813950000331,331.24875470018014,[0.15333333333333332],[-0.35],[1],[0],[0],[1.395841899793595],['target'],P2,001,2024-10-10_19h29.42.261,visual search task,2024.1.5,None,2024-10-10 19h30.27.762448 +0530,
198,0,198,0,331.3033060999587,,331.25323829986155,10,331.3033060999587,331.3033060999587,0.03557600034400821,332.3139837998897,333.2662101001479,[-0.04666666666666667],[0.17833333333333334],[1],[0],[0],[1.9779701000079513],['target'],P2,001,2024-10-10_19h29.42.261,visual search task,2024.1.5,None,2024-10-10 19h30.27.762448 +0530,
199,0,199,0,333.320561000146,,333.27071829978377,10,333.320561000146,333.320561000146,0.03578759962692857,334.346461399924,335.04928229982033,[0.2916666666666667],[-0.07166666666666667],[1],[0],[0],[1.7430874002166092],['target'],P2,001,2024-10-10_19h29.42.261,visual search task,2024.1.5,None,2024-10-10 19h30.27.762448 +0530,
