trials.thisRepN,trials.thisTrialN,trials.thisN,trials.thisIndex,thisRow.t,notes,trial.started,num_distr,Fixation.started,target.started,mouse.started,trial.stopped,mouse.x,mouse.y,mouse.leftButton,mouse.midButton,mouse.rightButton,mouse.time,mouse.clicked_name,participant,session,date,expName,psychopyVersion,frameRate,expStart,
0,0,0,0,0.06335899996338412,,0.00570859998697415,10,0.06335899996338412,0.06335899996338412,0.04442869999911636,1.7564733999897726,[0.15625],[-0.06640625],[1],[0],[0],[1.7115235999808647],['target'],Participant4,001,2024-10-10_18h45.12.578,D3_exp5_VisualSearchExperiment,2024.1.5,None,2024-10-10 18h45.31.200637 +0530,
1,0,1,0,1.8256008999887854,,1.7663864999776706,10,1.8256008999887854,1.8256008999887854,0.047524900001008064,4.23724459996447,[0.3098958333333333],[0.1796875],[1],[0],[0],[2.4230410999734886],['target'],Participant4,001,2024-10-10_18h45.12.578,D3_exp5_VisualSearchExperiment,2024.1.5,None,2024-10-10 18h45.31.200637 +0530,
2,0,2,0,4.3293234999873675,,4.245241699973121,10,4.3293234999873675,4.3293234999873675,0.05711739999242127,5.708334799972363,[0.2955729166666667],[0.4283854166666667],[1],[0],[0],[1.4069510999834165],['target'],Participant4,001,2024-10-10_18h45.12.578,D3_exp5_VisualSearchExperiment,2024.1.5,None,2024-10-10 18h45.31.200637 +0530,
3,0,3,0,5.7852334000053816,,5.716414899972733,10,5.7852334000053816,5.7852334000053816,0.046476999996230006,10.92978409997886,[0.16536458333333334],[-0.4283854166666667],[1],[0],[0],[5.168190100055654],['target'],Participant4,001,2024-10-10_18h45.12.578,D3_exp5_VisualSearchExperiment,2024.1.5,None,2024-10-10 18h45.31.200637 +0530,
4,0,4,0,11.004113500006497,,10.935349099978339,10,11.004113500006497,11.004113500006497,0.04974470002343878,12.684754199988674,[0.03515625],[-0.4739583333333333],[1],[0],[0],[1.7005792999989353],['target'],Participant4,001,2024-10-10_18h45.12.578,D3_exp5_VisualSearchExperiment,2024.1.5,None,2024-10-10 18h45.31.200637 +0530,
5,0,5,0,12.746528299991041,,12.687745500006713,10,12.746528299991041,12.746528299991041,0.037049499980639666,14.252116099989507,[0.21223958333333334],[0.09505208333333333],[1],[0],[0],[1.5272590999957174],['target'],Participant4,001,2024-10-10_18h45.12.578,D3_exp5_VisualSearchExperiment,2024.1.5,None,2024-10-10 18h45.31.200637 +0530,
6,0,6,0,14.296129399968777,,14.259358999959659,5,14.296129399968777,14.296129399968777,0.028615099960006773,16.8517448999919,[0.4583333333333333],[-0.3828125],[1],[0],[0],[2.564629899978172],[],Participant4,001,2024-10-10_18h45.12.578,D3_exp5_VisualSearchExperiment,2024.1.5,None,2024-10-10 18h45.31.200637 +0530,
7,0,7,0,16.935244799999055,,16.856783900002483,10,16.935244799999055,16.935244799999055,0.056067700032144785,19.313621199980844,[0.036458333333333336],[0.13671875],[1],[0],[0],[2.401196599996183],['target'],Participant4,001,2024-10-10_18h45.12.578,D3_exp5_VisualSearchExperiment,2024.1.5,None,2024-10-10 18h45.31.200637 +0530,
8,0,8,0,19.37995360000059,,19.320332399976905,10,19.37995360000059,19.37995360000059,0.041084399970714,20.953514499997254,[0.06901041666666667],[0.12890625],[1],[0],[0],[1.5928889000206254],['target'],Participant4,001,2024-10-10_18h45.12.578,D3_exp5_VisualSearchExperiment,2024.1.5,None,2024-10-10 18h45.31.200637 +0530,
9,0,9,0,21.006530999962706,,20.961569699982647,5,21.006530999962706,21.006530999962706,0.031230000022333115,22.536030199960805,[0.08723958333333333],[0.17057291666666666],[1],[0],[0],[1.544188000028953],['target'],Participant4,001,2024-10-10_18h45.12.578,D3_exp5_VisualSearchExperiment,2024.1.5,None,2024-10-10 18h45.31.200637 +0530,
10,0,10,0,22.588012799969874,,22.543512300006114,5,22.588012799969874,22.588012799969874,0.029925999988336116,24.28598049998982,[-0.17447916666666666],[-0.3802083333333333],[1],[0],[0],[1.7134335999726318],['target'],Participant4,001,2024-10-10_18h45.12.578,D3_exp5_VisualSearchExperiment,2024.1.5,None,2024-10-10 18h45.31.200637 +0530,
11,0,11,0,24.37949259998277,,24.29298829997424,10,24.37949259998277,24.37949259998277,0.06507279997458681,26.463716099970043,[0.15104166666666666],[-0.22135416666666666],[1],[0],[0],[2.106771899969317],['target'],Participant4,001,2024-10-10_18h45.12.578,D3_exp5_VisualSearchExperiment,2024.1.5,None,2024-10-10 18h45.31.200637 +0530,
12,0,12,0,26.50879150000401,,26.467667899967637,5,26.50879150000401,26.50879150000401,0.02726310002617538,28.18751199997496,[-0.13151041666666666],[-0.37109375],[1],[0],[0],[1.6931363000185229],['target'],Participant4,001,2024-10-10_18h45.12.578,D3_exp5_VisualSearchExperiment,2024.1.5,None,2024-10-10 18h45.31.200637 +0530,
13,0,13,0,28.254343000007793,,28.1949847000069,10,28.254343000007793,28.254343000007793,0.04494490002980456,30.384723700000905,[0.47265625],[0.19010416666666666],[1],[0],[0],[2.1455160999903455],['target'],Participant4,001,2024-10-10_18h45.12.578,D3_exp5_VisualSearchExperiment,2024.1.5,None,2024-10-10 18h45.31.200637 +0530,
14,0,14,0,30.465103599999566,,30.392057799967006,10,30.465103599999566,30.465103599999566,0.0597268000128679,33.4560586999869,[-0.40625],[0.3268229166666667],[1],[0],[0],[3.005568200023845],['target'],Participant4,001,2024-10-10_18h45.12.578,D3_exp5_VisualSearchExperiment,2024.1.5,None,2024-10-10 18h45.31.200637 +0530,
15,0,15,0,33.50059259997215,,33.461059499997646,5,33.50059259997215,33.50059259997215,0.024850600049830973,35.43744790001074,[0.20182291666666666],[-0.15104166666666666],[1],[0],[0],[1.9518650999525562],['target'],Participant4,001,2024-10-10_18h45.12.578,D3_exp5_VisualSearchExperiment,2024.1.5,None,2024-10-10 18h45.31.200637 +0530,
16,0,16,0,35.46829129999969,,35.44388589996379,5,35.46829129999969,35.46829129999969,0.018548300024122,37.104120399977546,[-0.09895833333333333],[-0.12630208333333334],[1],[0],[0],[1.6419952999567613],['target'],Participant4,001,2024-10-10_18h45.12.578,D3_exp5_VisualSearchExperiment,2024.1.5,None,2024-10-10 18h45.31.200637 +0530,
17,0,17,0,37.15862870001001,,37.11153270001523,5,37.15862870001001,37.15862870001001,0.03308590000960976,38.78742680000141,[0.4283854166666667],[-0.4401041666666667],[1],[0],[0],[1.6440644999966025],['target'],Participant4,001,2024-10-10_18h45.12.578,D3_exp5_VisualSearchExperiment,2024.1.5,None,2024-10-10 18h45.31.200637 +0530,
18,0,18,0,38.83737819996895,,38.79062889999477,10,38.83737819996895,38.83737819996895,0.035275000031106174,40.696469499962404,[-0.12239583333333333],[-0.4661458333333333],[1],[0],[0],[1.8706284000072628],['target'],Participant4,001,2024-10-10_18h45.12.578,D3_exp5_VisualSearchExperiment,2024.1.5,None,2024-10-10 18h45.31.200637 +0530,
19,0,19,0,40.740794499986805,,40.70390999998199,5,40.740794499986805,40.740794499986805,0.02757700002985075,43.004338199971244,[0.3255208333333333],[-0.46875],[1],[0],[0],[2.2740210000192747],[],Participant4,001,2024-10-10_18h45.12.578,D3_exp5_VisualSearchExperiment,2024.1.5,None,2024-10-10 18h45.31.200637 +0530,
20,0,20,0,43.03109850001056,,43.00799469999038,5,43.03109850001056,43.03109850001056,0.016823100042529404,45.33815289998893,[0.21484375],[0.02734375],[1],[0],[0],[2.313532900006976],['target'],Participant4,001,2024-10-10_18h45.12.578,D3_exp5_VisualSearchExperiment,2024.1.5,None,2024-10-10 18h45.31.200637 +0530,
21,0,21,0,45.42366570001468,,45.34580259997165,10,45.42366570001468,45.42366570001468,0.05925639998167753,46.85651339998003,[0.3763020833333333],[0.1328125],[1],[0],[0],[1.4529386999784037],['target'],Participant4,001,2024-10-10_18h45.12.578,D3_exp5_VisualSearchExperiment,2024.1.5,None,2024-10-10 18h45.31.200637 +0530,
22,0,22,0,46.89958510000724,,46.85944859997835,10,46.89958510000724,46.89958510000724,0.03022459999192506,49.5757728999597,[0.3059895833333333],[-0.4791666666666667],[1],[0],[0],[2.6862138000433333],['target'],Participant4,001,2024-10-10_18h45.12.578,D3_exp5_VisualSearchExperiment,2024.1.5,None,2024-10-10 18h45.31.200637 +0530,
23,0,23,0,49.64756030001445,,49.58034139999654,10,49.64756030001445,49.64756030001445,0.04855830001179129,52.062178699998185,[-0.14713541666666666],[0.3502604166666667],[1],[0],[0],[2.4336393999983557],['target'],Participant4,001,2024-10-10_18h45.12.578,D3_exp5_VisualSearchExperiment,2024.1.5,None,2024-10-10 18h45.31.200637 +0530,
24,0,24,0,52.1327265999862,,52.06961030000821,10,52.1327265999862,52.1327265999862,0.04737570002907887,57.239840399997775,[-0.2526041666666667],[-0.4348958333333333],[1],[0],[0],[5.123684999998659],['target'],Participant4,001,2024-10-10_18h45.12.578,D3_exp5_VisualSearchExperiment,2024.1.5,None,2024-10-10 18h45.31.200637 +0530,
25,0,25,0,57.28941659996053,,57.245725899992976,5,57.28941659996053,57.28941659996053,0.0285194999887608,59.390970600012224,[0.17057291666666666],[0.2994791666666667],[1],[0],[0],[2.1170711999875493],['target'],Participant4,001,2024-10-10_18h45.12.578,D3_exp5_VisualSearchExperiment,2024.1.5,None,2024-10-10 18h45.31.200637 +0530,
26,0,26,0,59.44608009996591,,59.39933609997388,5,59.44608009996591,59.44608009996591,0.030074300011619925,61.0893505999702,[0.022135416666666668],[0.07552083333333333],[1],[0],[0],[1.6609944999800064],['target'],Participant4,001,2024-10-10_18h45.12.578,D3_exp5_VisualSearchExperiment,2024.1.5,None,2024-10-10 18h45.31.200637 +0530,
27,0,27,0,61.129851899982896,,61.09443369996734,5,61.129851899982896,61.129851899982896,0.023514000000432134,62.8228166999761,[0.3151041666666667],[-0.15885416666666666],[1],[0],[0],[1.7056622999953106],['target'],Participant4,001,2024-10-10_18h45.12.578,D3_exp5_VisualSearchExperiment,2024.1.5,None,2024-10-10 18h45.31.200637 +0530,
28,0,28,0,62.86153569997987,,62.82771679997677,5,62.86153569997987,62.86153569997987,0.022345300007145852,64.60685669997474,[-0.2265625],[0.3984375],[1],[0],[0],[1.7574319000123069],['target'],Participant4,001,2024-10-10_18h45.12.578,D3_exp5_VisualSearchExperiment,2024.1.5,None,2024-10-10 18h45.31.200637 +0530,
29,0,29,0,64.71328460000223,,64.61131120001664,10,64.71328460000223,64.71328460000223,0.07822239998495206,67.47564560000319,[-0.4440104166666667],[-0.026041666666666668],[1],[0],[0],[2.7868157999473624],['target'],Participant4,001,2024-10-10_18h45.12.578,D3_exp5_VisualSearchExperiment,2024.1.5,None,2024-10-10 18h45.31.200637 +0530,
30,0,30,0,67.52047019999009,,67.47908339998685,10,67.52047019999009,67.52047019999009,0.030885799962561578,71.35823509999318,[0.19661458333333334],[-0.3046875],[1],[0],[0],[3.848654399975203],['target'],Participant4,001,2024-10-10_18h45.12.578,D3_exp5_VisualSearchExperiment,2024.1.5,None,2024-10-10 18h45.31.200637 +0530,
31,0,31,0,71.4292553999694,,71.36208150000311,10,71.4292553999694,71.4292553999694,0.04322849999880418,73.22304959996836,[0.4453125],[-0.16927083333333334],[1],[0],[0],[1.8182171999942511],['target'],Participant4,001,2024-10-10_18h45.12.578,D3_exp5_VisualSearchExperiment,2024.1.5,None,2024-10-10 18h45.31.200637 +0530,
32,0,32,0,73.29746380000142,,73.22801449999679,10,73.29746380000142,73.29746380000142,0.04681030003121123,75.0907722999691,[-0.2942708333333333],[-0.07291666666666667],[1],[0],[0],[1.8166785999783315],['target'],Participant4,001,2024-10-10_18h45.12.578,D3_exp5_VisualSearchExperiment,2024.1.5,None,2024-10-10 18h45.31.200637 +0530,
33,0,33,0,75.11741030000849,,75.09371819999069,5,75.11741030000849,75.11741030000849,0.0167109000030905,77.29266079998342,[0.3255208333333333],[0.42578125],[1],[0],[0],[2.1820827000192367],['target'],Participant4,001,2024-10-10_18h45.12.578,D3_exp5_VisualSearchExperiment,2024.1.5,None,2024-10-10 18h45.31.200637 +0530,
34,0,34,0,77.33132659998955,,77.299794999999,5,77.33132659998955,77.33132659998955,0.02566450001904741,79.49126509996131,[0.4661458333333333],[-0.15755208333333334],[1],[0],[0],[2.1669055000529625],['target'],Participant4,001,2024-10-10_18h45.12.578,D3_exp5_VisualSearchExperiment,2024.1.5,None,2024-10-10 18h45.31.200637 +0530,
35,0,35,0,79.54517250001663,,79.4965240000165,10,79.54517250001663,79.54517250001663,0.03792939998675138,82.60973389999708,[-0.37109375],[0.3203125],[1],[0],[0],[3.07571210002061],['target'],Participant4,001,2024-10-10_18h45.12.578,D3_exp5_VisualSearchExperiment,2024.1.5,None,2024-10-10 18h45.31.200637 +0530,
36,0,36,0,82.67230099998415,,82.6163693999988,10,82.67230099998415,82.67230099998415,0.04122109996387735,85.06586269999389,[0.4192708333333333],[-0.21614583333333334],[1],[0],[0],[2.4091752000385895],['target'],Participant4,001,2024-10-10_18h45.12.578,D3_exp5_VisualSearchExperiment,2024.1.5,None,2024-10-10 18h45.31.200637 +0530,
37,0,37,0,85.13366300001508,,85.06902290001744,10,85.13366300001508,85.13366300001508,0.04511659999843687,88.76567819999764,[0.3932291666666667],[0.14973958333333334],[1],[0],[0],[3.6517903999774717],['target'],Participant4,001,2024-10-10_18h45.12.578,D3_exp5_VisualSearchExperiment,2024.1.5,None,2024-10-10 18h45.31.200637 +0530,
38,0,38,0,88.83737490000203,,88.7697909999988,10,88.83737490000203,88.83737490000203,0.04711899999529123,91.00966380001046,[-0.4830729166666667],[-0.005208333333333333],[1],[0],[0],[2.1930296000209637],['target'],Participant4,001,2024-10-10_18h45.12.578,D3_exp5_VisualSearchExperiment,2024.1.5,None,2024-10-10 18h45.31.200637 +0530,
39,0,39,0,91.08211019996088,,91.01618759997655,10,91.08211019996088,91.08211019996088,0.050613800005521625,94.94302979996428,[-0.053385416666666664],[0.4817708333333333],[1],[0],[0],[3.877089999965392],['target'],Participant4,001,2024-10-10_18h45.12.578,D3_exp5_VisualSearchExperiment,2024.1.5,None,2024-10-10 18h45.31.200637 +0530,
40,0,40,0,94.98903820000123,,94.94632950000232,10,94.98903820000123,94.98903820000123,0.031804799975361675,96.89275870000711,[0.3151041666666667],[0.07942708333333333],[1],[0],[0],[1.9146481999778189],['target'],Participant4,001,2024-10-10_18h45.12.578,D3_exp5_VisualSearchExperiment,2024.1.5,None,2024-10-10 18h45.31.200637 +0530,
41,0,41,0,96.96930609998526,,96.90052129997639,10,96.96930609998526,96.96930609998526,0.05181859998265281,99.09369119995972,[0.20572916666666666],[-0.2708333333333333],[1],[0],[0],[2.142417100025341],['target'],Participant4,001,2024-10-10_18h45.12.578,D3_exp5_VisualSearchExperiment,2024.1.5,None,2024-10-10 18h45.31.200637 +0530,
42,0,42,0,99.16026319999946,,99.10013360000448,10,99.16026319999946,99.16026319999946,0.039020199968945235,104.5045294999727,[0.109375],[0.2903645833333333],[1],[0],[0],[5.365393400017638],['target'],Participant4,001,2024-10-10_18h45.12.578,D3_exp5_VisualSearchExperiment,2024.1.5,None,2024-10-10 18h45.31.200637 +0530,
43,0,43,0,104.59775979997357,,104.51216639997438,10,104.59775979997357,104.59775979997357,0.06167759996606037,106.84375719999662,[0.3463541666666667],[-0.3020833333333333],[1],[0],[0],[2.2709018000168726],['target'],Participant4,001,2024-10-10_18h45.12.578,D3_exp5_VisualSearchExperiment,2024.1.5,None,2024-10-10 18h45.31.200637 +0530,
44,0,44,0,106.87178669997957,,106.84869770001387,5,106.87178669997957,106.87178669997957,0.01599699998041615,109.1786337000085,[0.09635416666666667],[-0.45703125],[1],[0],[0],[2.3141003000200726],['target'],Participant4,001,2024-10-10_18h45.12.578,D3_exp5_VisualSearchExperiment,2024.1.5,None,2024-10-10 18h45.31.200637 +0530,
45,0,45,0,109.23457329999655,,109.18607029999839,5,109.23457329999655,109.23457329999655,0.03371590003371239,111.84549109998625,[-0.2955729166666667],[0.16145833333333334],[1],[0],[0],[2.6266962999943644],['target'],Participant4,001,2024-10-10_18h45.12.578,D3_exp5_VisualSearchExperiment,2024.1.5,None,2024-10-10 18h45.31.200637 +0530,
46,0,46,0,111.89964079996571,,111.85285620001378,5,111.89964079996571,111.89964079996571,0.03228089999174699,114.22954059997573,[-0.061197916666666664],[-0.4596354166666667],[1],[0],[0],[2.3454785000067204],['target'],Participant4,001,2024-10-10_18h45.12.578,D3_exp5_VisualSearchExperiment,2024.1.5,None,2024-10-10 18h45.31.200637 +0530,
47,0,47,0,114.27134529995965,,114.23768289998407,5,114.27134529995965,114.27134529995965,0.02745550003601238,116.14503139996668,[-0.23307291666666666],[0.26171875],[1],[0],[0],[1.8810036999639124],['target'],Participant4,001,2024-10-10_18h45.12.578,D3_exp5_VisualSearchExperiment,2024.1.5,None,2024-10-10 18h45.31.200637 +0530,
48,0,48,0,116.19198529998539,,116.15099479997298,5,116.19198529998539,116.19198529998539,0.023577300016768277,118.07924529997399,[-0.421875],[0.06640625],[1],[0],[0],[1.905489100026898],['target'],Participant4,001,2024-10-10_18h45.12.578,D3_exp5_VisualSearchExperiment,2024.1.5,None,2024-10-10 18h45.31.200637 +0530,
49,0,49,0,118.11200680001639,,118.08363000000827,5,118.11200680001639,118.11200680001639,0.018373900034930557,120.02873560000444,[-0.0859375],[0.4140625],[1],[0],[0],[1.9270808000001125],['target'],Participant4,001,2024-10-10_18h45.12.578,D3_exp5_VisualSearchExperiment,2024.1.5,None,2024-10-10 18h45.31.200637 +0530,
50,0,50,0,120.08301339996979,,120.03442569996696,5,120.08301339996979,120.08301339996979,0.032477499975357205,122.24551360000623,[-0.13671875],[-0.0078125],[1],[0],[0],[2.1793706999742426],['target'],Participant4,001,2024-10-10_18h45.12.578,D3_exp5_VisualSearchExperiment,2024.1.5,None,2024-10-10 18h45.31.200637 +0530,
51,0,51,0,122.28371899999911,,122.24966069997754,5,122.28371899999911,122.28371899999911,0.022957900015171617,123.81294819997856,[-0.2890625],[-0.015625],[1],[0],[0],[1.5406768000102602],['target'],Participant4,001,2024-10-10_18h45.12.578,D3_exp5_VisualSearchExperiment,2024.1.5,None,2024-10-10 18h45.31.200637 +0530,
52,0,52,0,123.90321209997637,,123.82038019999163,10,123.90321209997637,123.90321209997637,0.06372899998677894,126.08103190001566,[0.15625],[-0.4557291666666667],[1],[0],[0],[2.1979085999773815],['target'],Participant4,001,2024-10-10_18h45.12.578,D3_exp5_VisualSearchExperiment,2024.1.5,None,2024-10-10 18h45.31.200637 +0530,
53,0,53,0,126.16793759999564,,126.08837939996738,10,126.16793759999564,126.16793759999564,0.05768900003749877,127.68219469999894,[0.17708333333333334],[-0.19140625],[1],[0],[0],[1.5370725000393577],['target'],Participant4,001,2024-10-10_18h45.12.578,D3_exp5_VisualSearchExperiment,2024.1.5,None,2024-10-10 18h45.31.200637 +0530,
54,0,54,0,127.72850859997561,,127.68636180000613,5,127.72850859997561,127.72850859997561,0.024984699964988977,129.58172740001464,[-0.4739583333333333],[0.22005208333333334],[1],[0],[0],[1.8704715000349097],['target'],Participant4,001,2024-10-10_18h45.12.578,D3_exp5_VisualSearchExperiment,2024.1.5,None,2024-10-10 18h45.31.200637 +0530,
55,0,55,0,129.63500770000974,,129.5891451999778,5,129.63500770000974,129.63500770000974,0.03184720000717789,132.1137370999786,[0.3424479166666667],[-0.26953125],[1],[0],[0],[2.493832400010433],['target'],Participant4,001,2024-10-10_18h45.12.578,D3_exp5_VisualSearchExperiment,2024.1.5,None,2024-10-10 18h45.31.200637 +0530,
56,0,56,0,132.14980650000507,,132.12073660001624,5,132.14980650000507,132.14980650000507,0.02172189997509122,134.84684909996577,[-0.3059895833333333],[-0.3658854166666667],[1],[0],[0],[2.705465200007893],['target'],Participant4,001,2024-10-10_18h45.12.578,D3_exp5_VisualSearchExperiment,2024.1.5,None,2024-10-10 18h45.31.200637 +0530,
57,0,57,0,134.88442269997904,,134.8516369999852,5,134.88442269997904,134.88442269997904,0.020869300002232194,137.2642033000011,[0.3111979166666667],[0.2981770833333333],[1],[0],[0],[2.3921842999989167],['target'],Participant4,001,2024-10-10_18h45.12.578,D3_exp5_VisualSearchExperiment,2024.1.5,None,2024-10-10 18h45.31.200637 +0530,
58,0,58,0,137.32184869999764,,137.26953699998558,10,137.32184869999764,137.32184869999764,0.03680619999067858,139.07405970001128,[0.10807291666666667],[0.2994791666666667],[1],[0],[0],[1.7681636000052094],['target'],Participant4,001,2024-10-10_18h45.12.578,D3_exp5_VisualSearchExperiment,2024.1.5,None,2024-10-10 18h45.31.200637 +0530,
59,0,59,0,139.139924899966,,139.08006680000108,10,139.139924899966,139.139924899966,0.04218140000011772,141.72228529996937,[-0.03125],[-0.22395833333333334],[1],[0],[0],[2.600541199964937],['target'],Participant4,001,2024-10-10_18h45.12.578,D3_exp5_VisualSearchExperiment,2024.1.5,None,2024-10-10 18h45.31.200637 +0530,
60,0,60,0,141.78403849998722,,141.7282793999766,10,141.78403849998722,141.78403849998722,0.043431000027339906,144.05269199999748,[-0.4010416666666667],[0.036458333333333336],[1],[0],[0],[2.2822163999662735],['target'],Participant4,001,2024-10-10_18h45.12.578,D3_exp5_VisualSearchExperiment,2024.1.5,None,2024-10-10 18h45.31.200637 +0530,
61,0,61,0,144.10080889996607,,144.05565160000697,10,144.10080889996607,144.10080889996607,0.033521999954245985,145.83945530001074,[-0.4114583333333333],[-0.07421875],[1],[0],[0],[1.750325699977111],['target'],Participant4,001,2024-10-10_18h45.12.578,D3_exp5_VisualSearchExperiment,2024.1.5,None,2024-10-10 18h45.31.200637 +0530,
62,0,62,0,145.92184069997165,,145.84674569999333,10,145.92184069997165,145.92184069997165,0.05354839999927208,148.43221070000436,[0.024739583333333332],[-0.3177083333333333],[1],[0],[0],[2.5329927999991924],['target'],Participant4,001,2024-10-10_18h45.12.578,D3_exp5_VisualSearchExperiment,2024.1.5,None,2024-10-10 18h45.31.200637 +0530,
63,0,63,0,148.5042195999995,,148.4386630000081,10,148.5042195999995,148.5042195999995,0.05127280001761392,150.7179953000159,[-0.390625],[0.16666666666666666],[1],[0],[0],[2.2288960000150837],['target'],Participant4,001,2024-10-10_18h45.12.578,D3_exp5_VisualSearchExperiment,2024.1.5,None,2024-10-10 18h45.31.200637 +0530,
64,0,64,0,150.74730139999883,,150.72110029996838,5,150.74730139999883,150.74730139999883,0.01795389998005703,152.2494320999831,[-0.0013020833333333333],[0.37109375],[1],[0],[0],[1.5104228999698535],['target'],Participant4,001,2024-10-10_18h45.12.578,D3_exp5_VisualSearchExperiment,2024.1.5,None,2024-10-10 18h45.31.200637 +0530,
65,0,65,0,152.33662099996582,,152.25688449997688,10,152.33662099996582,152.33662099996582,0.05208910000510514,153.7030447999714,[0.2552083333333333],[0.3463541666666667],[1],[0],[0],[1.395122200017795],[],Participant4,001,2024-10-10_18h45.12.578,D3_exp5_VisualSearchExperiment,2024.1.5,None,2024-10-10 18h45.31.200637 +0530,
66,0,66,0,153.76568179996684,,153.70705689996248,10,153.76568179996684,153.76568179996684,0.0468068000045605,156.31571539997822,[-0.06510416666666667],[0.4830729166666667],[1],[0],[0],[2.5620682999724522],['target'],Participant4,001,2024-10-10_18h45.12.578,D3_exp5_VisualSearchExperiment,2024.1.5,None,2024-10-10 18h45.31.200637 +0530,
67,0,67,0,156.39212829997996,,156.32142260001274,10,156.39212829997996,156.39212829997996,0.054722600034438074,158.83047659997828,[0.44921875],[0.024739583333333332],[1],[0],[0],[2.4554094999912195],['target'],Participant4,001,2024-10-10_18h45.12.578,D3_exp5_VisualSearchExperiment,2024.1.5,None,2024-10-10 18h45.31.200637 +0530,
68,0,68,0,158.8808466999908,,158.83468959998572,10,158.8808466999908,158.8808466999908,0.03468470001826063,161.36702249996597,[-0.033854166666666664],[-0.4205729166666667],[1],[0],[0],[2.4978681999491528],['target'],Participant4,001,2024-10-10_18h45.12.578,D3_exp5_VisualSearchExperiment,2024.1.5,None,2024-10-10 18h45.31.200637 +0530,
69,0,69,0,161.448303400015,,161.37401339999633,10,161.448303400015,161.448303400015,0.05376400001114234,163.73829539999133,[-0.057291666666666664],[0.07552083333333333],[1],[0],[0],[2.311649200040847],['target'],Participant4,001,2024-10-10_18h45.12.578,D3_exp5_VisualSearchExperiment,2024.1.5,None,2024-10-10 18h45.31.200637 +0530,
70,0,70,0,163.7990715999622,,163.74123499996495,10,163.7990715999622,163.7990715999622,0.04165670002112165,165.3699765999918,[0.48046875],[0.23828125],[1],[0],[0],[1.5870389000046998],['target'],Participant4,001,2024-10-10_18h45.12.578,D3_exp5_VisualSearchExperiment,2024.1.5,None,2024-10-10 18h45.31.200637 +0530,
71,0,71,0,165.41695769998478,,165.3770855999901,5,165.41695769998478,165.41695769998478,0.03017709997948259,168.4844306000159,[-0.2578125],[-0.16796875],[1],[0],[0],[3.078382000036072],['target'],Participant4,001,2024-10-10_18h45.12.578,D3_exp5_VisualSearchExperiment,2024.1.5,None,2024-10-10 18h45.31.200637 +0530,
72,0,72,0,168.51874699996551,,168.48923730000388,5,168.51874699996551,168.51874699996551,0.021048900031019002,170.33399559999816,[-0.4479166666666667],[0.20572916666666666],[1],[0],[0],[1.8242936999886297],['target'],Participant4,001,2024-10-10_18h45.12.578,D3_exp5_VisualSearchExperiment,2024.1.5,None,2024-10-10 18h45.31.200637 +0530,
73,0,73,0,170.4162335000001,,170.3391231999849,10,170.4162335000001,170.4162335000001,0.05356739996932447,172.5324695999734,[0.4388020833333333],[-0.018229166666666668],[1],[0],[0],[2.140273500001058],['target'],Participant4,001,2024-10-10_18h45.12.578,D3_exp5_VisualSearchExperiment,2024.1.5,None,2024-10-10 18h45.31.200637 +0530,
74,0,74,0,172.5984088999685,,172.53696830000263,10,172.5984088999685,172.5984088999685,0.04351889999816194,175.23523559997557,[-0.40234375],[-0.1875],[1],[0],[0],[2.6551740000140853],['target'],Participant4,001,2024-10-10_18h45.12.578,D3_exp5_VisualSearchExperiment,2024.1.5,None,2024-10-10 18h45.31.200637 +0530,
75,0,75,0,175.28773629997158,,175.24051520001376,5,175.28773629997158,175.28773629997158,0.031016700027976185,177.76846589997876,[-0.009114583333333334],[-0.2643229166666667],[1],[0],[0],[2.4977001000079326],['target'],Participant4,001,2024-10-10_18h45.12.578,D3_exp5_VisualSearchExperiment,2024.1.5,None,2024-10-10 18h45.31.200637 +0530,
76,0,76,0,177.80973280000035,,177.7741158999852,5,177.80973280000035,177.80973280000035,0.022966999968048185,179.5354411000153,[0.22265625],[-0.4427083333333333],[1],[0],[0],[1.7389154999982566],['target'],Participant4,001,2024-10-10_18h45.12.578,D3_exp5_VisualSearchExperiment,2024.1.5,None,2024-10-10 18h45.31.200637 +0530,
77,0,77,0,179.5875314999721,,179.54320349998306,5,179.5875314999721,179.5875314999721,0.02878900000359863,181.28607699996792,[0.4518229166666667],[-0.24088541666666666],[1],[0],[0],[1.7149674999527633],['target'],Participant4,001,2024-10-10_18h45.12.578,D3_exp5_VisualSearchExperiment,2024.1.5,None,2024-10-10 18h45.31.200637 +0530,
78,0,78,0,181.3378225999768,,181.2913502000156,5,181.3378225999768,181.3378225999768,0.03154140000697225,183.50228630000493,[-0.43359375],[0.053385416666666664],[1],[0],[0],[2.1801421000272967],['target'],Participant4,001,2024-10-10_18h45.12.578,D3_exp5_VisualSearchExperiment,2024.1.5,None,2024-10-10 18h45.31.200637 +0530,
79,0,79,0,183.53411880001659,,183.50821900001029,5,183.53411880001659,183.53411880001659,0.01971900003263727,185.86940520000644,[0.12239583333333333],[0.30859375],[1],[0],[0],[2.342134399979841],['target'],Participant4,001,2024-10-10_18h45.12.578,D3_exp5_VisualSearchExperiment,2024.1.5,None,2024-10-10 18h45.31.200637 +0530,
80,0,80,0,185.94692319998285,,185.87416750000557,10,185.94692319998285,185.94692319998285,0.0494497999898158,189.01936249999562,[-0.4114583333333333],[0.234375],[1],[0],[0],[3.0963387999800034],['target'],Participant4,001,2024-10-10_18h45.12.578,D3_exp5_VisualSearchExperiment,2024.1.5,None,2024-10-10 18h45.31.200637 +0530,
81,0,81,0,189.0936234999681,,189.0234118999797,10,189.0936234999681,189.0936234999681,0.04389420000370592,191.06528529996285,[0.17317708333333334],[0.3684895833333333],[1],[0],[0],[1.998498999979347],['target'],Participant4,001,2024-10-10_18h45.12.578,D3_exp5_VisualSearchExperiment,2024.1.5,None,2024-10-10 18h45.31.200637 +0530,
82,0,82,0,191.1091819999856,,191.06978109997,5,191.1091819999856,191.1091819999856,0.027863499999511987,194.93837509996956,[0.053385416666666664],[-0.0234375],[1],[0],[0],[3.841058599995449],['target'],Participant4,001,2024-10-10_18h45.12.578,D3_exp5_VisualSearchExperiment,2024.1.5,None,2024-10-10 18h45.31.200637 +0530,
83,0,83,0,195.0242041000165,,194.94672339997487,10,195.0242041000165,195.0242041000165,0.061177700001280755,197.05331759998808,[-0.11979166666666667],[-0.1484375],[1],[0],[0],[2.04694789997302],['target'],Participant4,001,2024-10-10_18h45.12.578,D3_exp5_VisualSearchExperiment,2024.1.5,None,2024-10-10 18h45.31.200637 +0530,
84,0,84,0,197.11187459999928,,197.05640790000325,10,197.11187459999928,197.11187459999928,0.03790709999157116,199.60490410000784,[-0.04296875],[0.16796875],[1],[0],[0],[2.5108929999987595],['target'],Participant4,001,2024-10-10_18h45.12.578,D3_exp5_VisualSearchExperiment,2024.1.5,None,2024-10-10 18h45.31.200637 +0530,
85,0,85,0,199.63234579999698,,199.6080001000082,5,199.63234579999698,199.63234579999698,0.016930899990256876,202.57354329997906,[0.21484375],[-0.3515625],[1],[0],[0],[2.94857199996477],['target'],Participant4,001,2024-10-10_18h45.12.578,D3_exp5_VisualSearchExperiment,2024.1.5,None,2024-10-10 18h45.31.200637 +0530,
86,0,86,0,202.63118500000564,,202.583009199996,10,202.63118500000564,202.63118500000564,0.03629740001633763,206.02119930001209,[-0.14192708333333334],[0.036458333333333336],[1],[0],[0],[3.403251799987629],['target'],Participant4,001,2024-10-10_18h45.12.578,D3_exp5_VisualSearchExperiment,2024.1.5,None,2024-10-10 18h45.31.200637 +0530,
87,0,87,0,206.1109667000128,,206.02732170000672,10,206.1109667000128,206.1109667000128,0.05889619997469708,207.88986130000558,[0.016927083333333332],[0.06510416666666667],[1],[0],[0],[1.804235699994024],['target'],Participant4,001,2024-10-10_18h45.12.578,D3_exp5_VisualSearchExperiment,2024.1.5,None,2024-10-10 18h45.31.200637 +0530,
88,0,88,0,207.93382049998036,,207.89680539997062,5,207.93382049998036,207.93382049998036,0.02874040004098788,210.1720151999616,[-0.22395833333333334],[-0.13151041666666666],[1],[0],[0],[2.2474971000337973],['target'],Participant4,001,2024-10-10_18h45.12.578,D3_exp5_VisualSearchExperiment,2024.1.5,None,2024-10-10 18h45.31.200637 +0530,
89,0,89,0,210.25734259997262,,210.17866689997027,10,210.25734259997262,210.25734259997262,0.06241449998924509,212.014231499983,[0.16145833333333334],[0.29296875],[1],[0],[0],[1.7739883000031114],['target'],Participant4,001,2024-10-10_18h45.12.578,D3_exp5_VisualSearchExperiment,2024.1.5,None,2024-10-10 18h45.31.200637 +0530,
90,0,90,0,212.08206569997128,,212.0213449000148,10,212.08206569997128,212.08206569997128,0.04608250001911074,214.5082878000103,[-0.21744791666666666],[-0.35546875],[1],[0],[0],[2.441745300020557],['target'],Participant4,001,2024-10-10_18h45.12.578,D3_exp5_VisualSearchExperiment,2024.1.5,None,2024-10-10 18h45.31.200637 +0530,
91,0,91,0,214.5818746999721,,214.51293659996009,10,214.5818746999721,214.5818746999721,0.05136899999342859,217.40829589997884,[-0.2942708333333333],[-0.045572916666666664],[1],[0],[0],[2.8446611000108533],['target'],Participant4,001,2024-10-10_18h45.12.578,D3_exp5_VisualSearchExperiment,2024.1.5,None,2024-10-10 18h45.31.200637 +0530,
92,0,92,0,217.436258599977,,217.4126263000071,5,217.436258599977,217.436258599977,0.017057999968528748,220.38979879999533,[0.16666666666666666],[0.4309895833333333],[1],[0],[0],[2.960520299966447],['target'],Participant4,001,2024-10-10_18h45.12.578,D3_exp5_VisualSearchExperiment,2024.1.5,None,2024-10-10 18h45.31.200637 +0530,
93,0,93,0,220.44084140000632,,220.39494069997454,5,220.44084140000632,220.44084140000632,0.029843500000424683,222.77330569998594,[0.20963541666666666],[-0.10416666666666667],[1],[0],[0],[2.349187800020445],['target'],Participant4,001,2024-10-10_18h45.12.578,D3_exp5_VisualSearchExperiment,2024.1.5,None,2024-10-10 18h45.31.200637 +0530,
94,0,94,0,222.84382810001262,,222.7773553999723,10,222.84382810001262,222.84382810001262,0.04489369998918846,224.68667640001513,[0.2708333333333333],[0.20833333333333334],[1],[0],[0],[1.8646383000304922],['target'],Participant4,001,2024-10-10_18h45.12.578,D3_exp5_VisualSearchExperiment,2024.1.5,None,2024-10-10 18h45.31.200637 +0530,
95,0,95,0,224.7643556999974,,224.69460429996252,10,224.7643556999974,224.7643556999974,0.05038670002250001,227.2686309000128,[0.2565104166666667],[-0.15104166666666666],[1],[0],[0],[2.5248150000115857],['target'],Participant4,001,2024-10-10_18h45.12.578,D3_exp5_VisualSearchExperiment,2024.1.5,None,2024-10-10 18h45.31.200637 +0530,
96,0,96,0,227.355951000005,,227.27425129996845,10,227.355951000005,227.355951000005,0.05986989999655634,229.97684419999132,[0.016927083333333332],[-0.2760416666666667],[1],[0],[0],[2.6432286000344902],['target'],Participant4,001,2024-10-10_18h45.12.578,D3_exp5_VisualSearchExperiment,2024.1.5,None,2024-10-10 18h45.31.200637 +0530,
97,0,97,0,230.04892629996175,,229.98314669996034,10,230.04892629996175,230.04892629996175,0.04649380000773817,232.629234299995,[0.14713541666666666],[-0.21744791666666666],[1],[0],[0],[2.6002667999709956],['target'],Participant4,001,2024-10-10_18h45.12.578,D3_exp5_VisualSearchExperiment,2024.1.5,None,2024-10-10 18h45.31.200637 +0530,
98,0,98,0,232.6945926999906,,232.63653149997117,10,232.6945926999906,232.6945926999906,0.04751790000591427,235.83758210000815,[-0.16927083333333334],[0.07161458333333333],[1],[0],[0],[3.1546458000084385],['target'],Participant4,001,2024-10-10_18h45.12.578,D3_exp5_VisualSearchExperiment,2024.1.5,None,2024-10-10 18h45.31.200637 +0530,
99,0,99,0,235.87603079999099,,235.84190289996332,5,235.87603079999099,235.87603079999099,0.022998300031758845,238.39165710000088,[0.037760416666666664],[0.1171875],[1],[0],[0],[2.5269486000179313],['target'],Participant4,001,2024-10-10_18h45.12.578,D3_exp5_VisualSearchExperiment,2024.1.5,None,2024-10-10 18h45.31.200637 +0530,
100,0,100,0,238.4822972000111,,238.39905979996547,10,238.4822972000111,238.4822972000111,0.061398599995300174,240.67093099997146,[0.2760416666666667],[0.20442708333333334],[1],[0],[0],[2.211334399995394],['target'],Participant4,001,2024-10-10_18h45.12.578,D3_exp5_VisualSearchExperiment,2024.1.5,None,2024-10-10 18h45.31.200637 +0530,
101,0,101,0,240.7320391999674,,240.6783643999952,10,240.7320391999674,240.7320391999674,0.04164780001156032,243.04532979999203,[-0.07291666666666667],[0.3463541666666667],[1],[0],[0],[2.3261774000129662],['target'],Participant4,001,2024-10-10_18h45.12.578,D3_exp5_VisualSearchExperiment,2024.1.5,None,2024-10-10 18h45.31.200637 +0530,
102,0,102,0,243.1172622999875,,243.0525566000142,10,243.1172622999875,243.1172622999875,0.05293000000528991,245.2608682999853,[-0.15104166666666666],[0.16276041666666666],[1],[0],[0],[2.1561906000133604],['target'],Participant4,001,2024-10-10_18h45.12.578,D3_exp5_VisualSearchExperiment,2024.1.5,None,2024-10-10 18h45.31.200637 +0530,
103,0,103,0,245.31649439997273,,245.26845510001294,5,245.31649439997273,245.31649439997273,0.031779900018591434,247.42617519997293,[-0.3828125],[-0.15625],[1],[0],[0],[2.1269899000180885],['target'],Participant4,001,2024-10-10_18h45.12.578,D3_exp5_VisualSearchExperiment,2024.1.5,None,2024-10-10 18h45.31.200637 +0530,
104,0,104,0,247.51587170001585,,247.43363869999303,10,247.51587170001585,247.51587170001585,0.06139889999758452,249.5086900999886,[0.10026041666666667],[-0.3125],[1],[0],[0],[2.0147534999996424],['target'],Participant4,001,2024-10-10_18h45.12.578,D3_exp5_VisualSearchExperiment,2024.1.5,None,2024-10-10 18h45.31.200637 +0530,
105,0,105,0,249.54869580001105,,249.51545199996326,5,249.54869580001105,249.54869580001105,0.0202786999871023,250.95981879997998,[0.2682291666666667],[-0.19401041666666666],[1],[0],[0],[1.4244480000343174],['target'],Participant4,001,2024-10-10_18h45.12.578,D3_exp5_VisualSearchExperiment,2024.1.5,None,2024-10-10 18h45.31.200637 +0530,
106,0,106,0,251.00240009999834,,250.965571800014,5,251.00240009999834,251.00240009999834,0.02587179996771738,252.39297749998514,[0.125],[-0.3046875],[1],[0],[0],[1.4022861999692395],['target'],Participant4,001,2024-10-10_18h45.12.578,D3_exp5_VisualSearchExperiment,2024.1.5,None,2024-10-10 18h45.31.200637 +0530,
107,0,107,0,252.47044870001264,,252.3972241000156,10,252.47044870001264,252.47044870001264,0.05231389997061342,254.82522679999238,[0.028645833333333332],[0.3125],[1],[0],[0],[2.375879700004589],['target'],Participant4,001,2024-10-10_18h45.12.578,D3_exp5_VisualSearchExperiment,2024.1.5,None,2024-10-10 18h45.31.200637 +0530,
108,0,108,0,254.86871459998656,,254.83376149996184,5,254.86871459998656,254.86871459998656,0.027896100014913827,257.01021719997516,[0.07291666666666667],[-0.18229166666666666],[1],[0],[0],[2.149491299991496],['target'],Participant4,001,2024-10-10_18h45.12.578,D3_exp5_VisualSearchExperiment,2024.1.5,None,2024-10-10 18h45.31.200637 +0530,
109,0,109,0,257.09509269997943,,257.0164452000172,10,257.09509269997943,257.09509269997943,0.056534199975430965,258.563557699963,[0.08854166666666667],[0.16276041666666666],[1],[0],[0],[1.4914212999865413],['target'],Participant4,001,2024-10-10_18h45.12.578,D3_exp5_VisualSearchExperiment,2024.1.5,None,2024-10-10 18h45.31.200637 +0530,
110,0,110,0,258.6201891999808,,258.5679466999718,5,258.6201891999808,258.6201891999808,0.03334530000574887,260.54390990000684,[0.3307291666666667],[-0.13020833333333334],[1],[0],[0],[1.9431355000124313],['target'],Participant4,001,2024-10-10_18h45.12.578,D3_exp5_VisualSearchExperiment,2024.1.5,None,2024-10-10 18h45.31.200637 +0530,
111,0,111,0,260.6401173999766,,260.5501629000064,10,260.6401173999766,260.6401173999766,0.06429880001815036,263.8572632999858,[0.3046875],[-0.3463541666666667],[1],[0],[0],[3.2434747999650426],['target'],Participant4,001,2024-10-10_18h45.12.578,D3_exp5_VisualSearchExperiment,2024.1.5,None,2024-10-10 18h45.31.200637 +0530,
112,0,112,0,263.92126219999045,,263.8638795000152,10,263.92126219999045,263.92126219999045,0.04325499996775761,266.6437257999787,[-0.033854166666666664],[0.06901041666666667],[1],[0],[0],[2.7375408000079915],['target'],Participant4,001,2024-10-10_18h45.12.578,D3_exp5_VisualSearchExperiment,2024.1.5,None,2024-10-10 18h45.31.200637 +0530,
113,0,113,0,266.7081688999897,,266.6475499999942,10,266.7081688999897,266.7081688999897,0.0415639000129886,268.94496589998016,[0.4361979166666667],[0.018229166666666668],[1],[0],[0],[2.2560009000007994],['target'],Participant4,001,2024-10-10_18h45.12.578,D3_exp5_VisualSearchExperiment,2024.1.5,None,2024-10-10 18h45.31.200637 +0530,
114,0,114,0,268.99169860000256,,268.95128739997745,5,268.99169860000256,268.99169860000256,0.025928799994289875,270.745707199967,[0.421875],[-0.17317708333333334],[1],[0],[0],[1.769175700028427],['target'],Participant4,001,2024-10-10_18h45.12.578,D3_exp5_VisualSearchExperiment,2024.1.5,None,2024-10-10 18h45.31.200637 +0530,
115,0,115,0,270.7988379999879,,270.7526262999745,5,270.7988379999879,270.7988379999879,0.030246100039221346,274.2446213999647,[0.4661458333333333],[0.4908854166666667],[1],[0],[0],[3.462667500018142],['target'],Participant4,001,2024-10-10_18h45.12.578,D3_exp5_VisualSearchExperiment,2024.1.5,None,2024-10-10 18h45.31.200637 +0530,
116,0,116,0,274.2887522999663,,274.25032120000105,5,274.2887522999663,274.2887522999663,0.02396319998661056,277.36285289999796,[0.09765625],[-0.2747395833333333],[1],[0],[0],[3.089236699976027],['target'],Participant4,001,2024-10-10_18h45.12.578,D3_exp5_VisualSearchExperiment,2024.1.5,None,2024-10-10 18h45.31.200637 +0530,
117,0,117,0,277.39725499995984,,277.3684942999971,5,277.39725499995984,277.39725499995984,0.01885619998211041,279.1620700999629,[-0.24739583333333334],[-0.17578125],[1],[0],[0],[1.7752071999711916],['target'],Participant4,001,2024-10-10_18h45.12.578,D3_exp5_VisualSearchExperiment,2024.1.5,None,2024-10-10 18h45.31.200637 +0530,
118,0,118,0,279.2405076000141,,279.1673237999785,10,279.2405076000141,279.2405076000141,0.05341170000610873,281.961966199975,[-0.022135416666666668],[0.37890625],[1],[0],[0],[2.741944200010039],['target'],Participant4,001,2024-10-10_18h45.12.578,D3_exp5_VisualSearchExperiment,2024.1.5,None,2024-10-10 18h45.31.200637 +0530,
119,0,119,0,282.0090232999646,,281.9659740999923,10,282.0090232999646,282.0090232999646,0.03199050005059689,284.99827179999556,[0.06770833333333333],[-0.13151041666666666],[1],[0],[0],[3.0005156000261195],['target'],Participant4,001,2024-10-10_18h45.12.578,D3_exp5_VisualSearchExperiment,2024.1.5,None,2024-10-10 18h45.31.200637 +0530,
120,0,120,0,285.0405741999857,,285.00574359996244,5,285.0405741999857,285.0405741999857,0.02716960001271218,286.71358539996436,[-0.11328125],[-0.005208333333333333],[1],[0],[0],[1.681849599990528],['target'],Participant4,001,2024-10-10_18h45.12.578,D3_exp5_VisualSearchExperiment,2024.1.5,None,2024-10-10 18h45.31.200637 +0530,
121,0,121,0,286.7630783999921,,286.71853309997823,10,286.7630783999921,286.7630783999921,0.032095300033688545,293.2642793999985,[-0.4596354166666667],[-0.3984375],[1],[0],[0],[6.514102000044659],['target'],Participant4,001,2024-10-10_18h45.12.578,D3_exp5_VisualSearchExperiment,2024.1.5,None,2024-10-10 18h45.31.200637 +0530,
122,0,122,0,293.3370855000103,,293.26964369998313,10,293.3370855000103,293.3370855000103,0.04693419998511672,295.40013949997956,[-0.10416666666666667],[-0.033854166666666664],[1],[0],[0],[2.0843183000106364],['target'],Participant4,001,2024-10-10_18h45.12.578,D3_exp5_VisualSearchExperiment,2024.1.5,None,2024-10-10 18h45.31.200637 +0530,
123,0,123,0,295.43865069997264,,295.4032888999791,5,295.43865069997264,295.43865069997264,0.021456999995280057,297.0141620999784,[0.12369791666666667],[0.2109375],[1],[0],[0],[1.5895750000490807],['target'],Participant4,001,2024-10-10_18h45.12.578,D3_exp5_VisualSearchExperiment,2024.1.5,None,2024-10-10 18h45.31.200637 +0530,
124,0,124,0,297.0951763999765,,297.01901809999254,10,297.0951763999765,297.0951763999765,0.051511399971786886,298.80993539997144,[0.44140625],[0.140625],[1],[0],[0],[1.7398885999573395],['target'],Participant4,001,2024-10-10_18h45.12.578,D3_exp5_VisualSearchExperiment,2024.1.5,None,2024-10-10 18h45.31.200637 +0530,
125,0,125,0,298.8470665999921,,298.81407630001195,5,298.8470665999921,298.8470665999921,0.022670399979688227,300.54765959997894,[-0.14713541666666666],[-0.06380208333333333],[1],[0],[0],[1.7114148999680765],['target'],Participant4,001,2024-10-10_18h45.12.578,D3_exp5_VisualSearchExperiment,2024.1.5,None,2024-10-10 18h45.31.200637 +0530,
126,0,126,0,300.5816242999863,,300.5520213000127,5,300.5816242999863,300.5816242999863,0.02084630000172183,303.39851269999053,[-0.3033854166666667],[-0.37890625],[1],[0],[0],[2.8259130000369623],['target'],Participant4,001,2024-10-10_18h45.12.578,D3_exp5_VisualSearchExperiment,2024.1.5,None,2024-10-10 18h45.31.200637 +0530,
127,0,127,0,303.4563474999741,,303.4058936999645,5,303.4563474999741,303.4563474999741,0.03416540002217516,304.6810276999604,[-0.3723958333333333],[-0.3489583333333333],[1],[0],[0],[1.2423812000197358],['target'],Participant4,001,2024-10-10_18h45.12.578,D3_exp5_VisualSearchExperiment,2024.1.5,None,2024-10-10 18h45.31.200637 +0530,
128,0,128,0,304.71439959999407,,304.6844154999708,5,304.71439959999407,304.71439959999407,0.017343999992590398,306.4490378999617,[-0.24609375],[-0.3255208333333333],[1],[0],[0],[1.747530699998606],['target'],Participant4,001,2024-10-10_18h45.12.578,D3_exp5_VisualSearchExperiment,2024.1.5,None,2024-10-10 18h45.31.200637 +0530,
129,0,129,0,306.49391199997626,,306.4542250999948,5,306.49391199997626,306.49391199997626,0.026243000000249594,308.36531779996585,[0.1796875],[0.08984375],[1],[0],[0],[1.8854153000283986],['target'],Participant4,001,2024-10-10_18h45.12.578,D3_exp5_VisualSearchExperiment,2024.1.5,None,2024-10-10 18h45.31.200637 +0530,
130,0,130,0,308.4127955000149,,308.37194219999947,5,308.4127955000149,308.4127955000149,0.025846200005616993,309.99865989998216,[0.11588541666666667],[0.20963541666666666],[1],[0],[0],[1.6016510999761522],['target'],Participant4,001,2024-10-10_18h45.12.578,D3_exp5_VisualSearchExperiment,2024.1.5,None,2024-10-10 18h45.31.200637 +0530,
131,0,131,0,310.08078670001123,,310.0036625000066,10,310.08078670001123,310.08078670001123,0.05061999999452382,311.66559819999384,[0.3072916666666667],[0.22135416666666666],[1],[0],[0],[1.6118910000077449],['target'],Participant4,001,2024-10-10_18h45.12.578,D3_exp5_VisualSearchExperiment,2024.1.5,None,2024-10-10 18h45.31.200637 +0530,
132,0,132,0,311.74799209996127,,311.6715129999793,5,311.74799209996127,311.74799209996127,0.06224959995597601,313.7171261999756,[-0.4036458333333333],[-0.109375],[1],[0],[0],[1.983367900014855],['target'],Participant4,001,2024-10-10_18h45.12.578,D3_exp5_VisualSearchExperiment,2024.1.5,None,2024-10-10 18h45.31.200637 +0530,
133,0,133,0,313.7543650000007,,313.7218975999858,5,313.7543650000007,313.7543650000007,0.021252600010484457,315.3826797999791,[0.3971354166666667],[-0.18489583333333334],[1],[0],[0],[1.6402231000247411],['target'],Participant4,001,2024-10-10_18h45.12.578,D3_exp5_VisualSearchExperiment,2024.1.5,None,2024-10-10 18h45.31.200637 +0530,
134,0,134,0,315.4172899000114,,315.3871119999676,5,315.4172899000114,315.4172899000114,0.020424800051841885,317.3571363000083,[0.35546875],[0.2669270833333333],[1],[0],[0],[1.9501984000089578],['target'],Participant4,001,2024-10-10_18h45.12.578,D3_exp5_VisualSearchExperiment,2024.1.5,None,2024-10-10 18h45.31.200637 +0530,
135,0,135,0,317.41911499999696,,317.3652170000132,10,317.41911499999696,317.41911499999696,0.04237530002137646,319.5629022999783,[-0.21484375],[0.4114583333333333],[1],[0],[0],[2.1545055999886245],['target'],Participant4,001,2024-10-10_18h45.12.578,D3_exp5_VisualSearchExperiment,2024.1.5,None,2024-10-10 18h45.31.200637 +0530,
136,0,136,0,319.64544290001504,,319.5695512999664,10,319.64544290001504,319.64544290001504,0.057546299998648465,321.1669431999908,[-0.4153645833333333],[-0.02734375],[1],[0],[0],[1.540930099959951],['target'],Participant4,001,2024-10-10_18h45.12.578,D3_exp5_VisualSearchExperiment,2024.1.5,None,2024-10-10 18h45.31.200637 +0530,
137,0,137,0,321.239165099978,,321.17100139998365,10,321.239165099978,321.239165099978,0.04194109997479245,322.8841766999685,[0.3528645833333333],[0.4622395833333333],[1],[0],[0],[1.6718015999649651],['target'],Participant4,001,2024-10-10_18h45.12.578,D3_exp5_VisualSearchExperiment,2024.1.5,None,2024-10-10 18h45.31.200637 +0530,
138,0,138,0,322.9159137000097,,322.88826500001596,5,322.9159137000097,322.9159137000097,0.018591700005345047,325.168854699994,[-0.23958333333333334],[-0.10286458333333333],[1],[0],[0],[2.262012700026389],['target'],Participant4,001,2024-10-10_18h45.12.578,D3_exp5_VisualSearchExperiment,2024.1.5,None,2024-10-10 18h45.31.200637 +0530,
139,0,139,0,325.251455599966,,325.1781986000133,10,325.251455599966,325.251455599966,0.05128590000094846,325.66690339997876,[-0.23958333333333334],[-0.10286458333333333],[1],[0],[0],[0.43857920001028106],[],Participant4,001,2024-10-10_18h45.12.578,D3_exp5_VisualSearchExperiment,2024.1.5,None,2024-10-10 18h45.31.200637 +0530,
140,0,140,0,325.7165685999789,,325.67036519997055,10,325.7165685999789,325.7165685999789,0.03520109999226406,327.83399069996085,[-0.3294270833333333],[-0.06770833333333333],[1],[0],[0],[2.128512800030876],['target'],Participant4,001,2024-10-10_18h45.12.578,D3_exp5_VisualSearchExperiment,2024.1.5,None,2024-10-10 18h45.31.200637 +0530,
141,0,141,0,327.8893179000006,,327.83930469996994,10,327.8893179000006,327.8893179000006,0.037015900015830994,329.8862141999998,[-0.48828125],[-0.2734375],[1],[0],[0],[2.010534100001678],['target'],Participant4,001,2024-10-10_18h45.12.578,D3_exp5_VisualSearchExperiment,2024.1.5,None,2024-10-10 18h45.31.200637 +0530,
142,0,142,0,329.959783600003,,329.8912733999896,10,329.959783600003,329.959783600003,0.047906899999361485,332.27866339997854,[0.078125],[0.32421875],[1],[0],[0],[2.340024499979336],['target'],Participant4,001,2024-10-10_18h45.12.578,D3_exp5_VisualSearchExperiment,2024.1.5,None,2024-10-10 18h45.31.200637 +0530,
143,0,143,0,332.3299800999812,,332.28454779996537,5,332.3299800999812,332.3299800999812,0.03120699996361509,333.8859888999723,[0.3020833333333333],[0.20572916666666666],[1],[0],[0],[1.5707240999909118],['target'],Participant4,001,2024-10-10_18h45.12.578,D3_exp5_VisualSearchExperiment,2024.1.5,None,2024-10-10 18h45.31.200637 +0530,
144,0,144,0,333.9761487999931,,333.8949387999601,10,333.9761487999931,333.9761487999931,0.06521550001343712,336.2663278999971,[0.359375],[-0.19140625],[1],[0],[0],[2.307014799967874],['target'],Participant4,001,2024-10-10_18h45.12.578,D3_exp5_VisualSearchExperiment,2024.1.5,None,2024-10-10 18h45.31.200637 +0530,
145,0,145,0,336.3557408999768,,336.2731092000031,10,336.3557408999768,336.3557408999768,0.06162910000421107,338.6695347999921,[-0.4700520833333333],[0.1484375],[1],[0],[0],[2.336163600033615],['target'],Participant4,001,2024-10-10_18h45.12.578,D3_exp5_VisualSearchExperiment,2024.1.5,None,2024-10-10 18h45.31.200637 +0530,
146,0,146,0,338.74234170001,,338.67303659999743,10,338.74234170001,338.74234170001,0.04795109998667613,341.4840670999838,[-0.20442708333333334],[-0.2838541666666667],[1],[0],[0],[2.763328700035345],['target'],Participant4,001,2024-10-10_18h45.12.578,D3_exp5_VisualSearchExperiment,2024.1.5,None,2024-10-10 18h45.31.200637 +0530,
147,0,147,0,341.5348159999703,,341.49264760001097,5,341.5348159999703,341.5348159999703,0.0314926000428386,343.2691752999672,[-0.23697916666666666],[-0.37109375],[1],[0],[0],[1.747094999998808],['target'],Participant4,001,2024-10-10_18h45.12.578,D3_exp5_VisualSearchExperiment,2024.1.5,None,2024-10-10 18h45.31.200637 +0530,
148,0,148,0,343.3518969999859,,343.2752196000074,10,343.3518969999859,343.3518969999859,0.05349469999782741,345.2507571000024,[-0.23958333333333334],[-0.053385416666666664],[1],[0],[0],[1.9227211000397801],['target'],Participant4,001,2024-10-10_18h45.12.578,D3_exp5_VisualSearchExperiment,2024.1.5,None,2024-10-10 18h45.31.200637 +0530,
149,0,149,0,345.30560899997363,,345.25786849996075,5,345.30560899997363,345.30560899997363,0.034074599971063435,348.8361295000068,[0.3580729166666667],[0.2799479166666667],[1],[0],[0],[3.545375799993053],['target'],Participant4,001,2024-10-10_18h45.12.578,D3_exp5_VisualSearchExperiment,2024.1.5,None,2024-10-10 18h45.31.200637 +0530,
150,0,150,0,348.91920589999063,,348.8431341999676,10,348.91920589999063,348.91920589999063,0.052124299982097,354.03628549998393,[0.22265625],[-0.3645833333333333],[1],[0],[0],[5.141769399982877],['target'],Participant4,001,2024-10-10_18h45.12.578,D3_exp5_VisualSearchExperiment,2024.1.5,None,2024-10-10 18h45.31.200637 +0530,
151,0,151,0,354.0630784999812,,354.03951769997366,5,354.0630784999812,354.0630784999812,0.016425999987404794,356.3364225999685,[0.11979166666666667],[0.13020833333333334],[1],[0],[0],[2.2807777000125498],['target'],Participant4,001,2024-10-10_18h45.12.578,D3_exp5_VisualSearchExperiment,2024.1.5,None,2024-10-10 18h45.31.200637 +0530,
152,0,152,0,356.3681681000162,,356.3405580999679,5,356.3681681000162,356.3681681000162,0.02047739998670295,358.28723139996873,[0.22526041666666666],[0.07161458333333333],[1],[0],[0],[1.9263864000095055],['target'],Participant4,001,2024-10-10_18h45.12.578,D3_exp5_VisualSearchExperiment,2024.1.5,None,2024-10-10 18h45.31.200637 +0530,
153,0,153,0,358.37317009997787,,358.29399450001074,10,358.37317009997787,358.37317009997787,0.056754899967927486,360.3033624999807,[0.24869791666666666],[-0.3385416666666667],[1],[0],[0],[1.953591299999971],['target'],Participant4,001,2024-10-10_18h45.12.578,D3_exp5_VisualSearchExperiment,2024.1.5,None,2024-10-10 18h45.31.200637 +0530,
154,0,154,0,360.3449951999937,,360.3069792999886,5,360.3449951999937,360.3449951999937,0.024792900017928332,362.2222214000067,[0.3671875],[0.20182291666666666],[1],[0],[0],[1.8907671999768354],['target'],Participant4,001,2024-10-10_18h45.12.578,D3_exp5_VisualSearchExperiment,2024.1.5,None,2024-10-10 18h45.31.200637 +0530,
155,0,155,0,362.2880395000102,,362.2293047999847,10,362.2880395000102,362.2880395000102,0.03999099996872246,364.755102599971,[-0.29296875],[-0.15625],[1],[0],[0],[2.4869261999847367],['target'],Participant4,001,2024-10-10_18h45.12.578,D3_exp5_VisualSearchExperiment,2024.1.5,None,2024-10-10 18h45.31.200637 +0530,
156,0,156,0,364.80549820000306,,364.7607934999978,10,364.80549820000306,364.80549820000306,0.033314600004814565,368.5711520999903,[-0.15494791666666666],[-0.4856770833333333],[1],[0],[0],[3.777663599990774],['target'],Participant4,001,2024-10-10_18h45.12.578,D3_exp5_VisualSearchExperiment,2024.1.5,None,2024-10-10 18h45.31.200637 +0530,
157,0,157,0,368.5977431999636,,368.57490599999437,5,368.5977431999636,368.5977431999636,0.01624900003662333,371.50520849996246,[-0.40625],[0.4830729166666667],[1],[0],[0],[2.914311100030318],['target'],Participant4,001,2024-10-10_18h45.12.578,D3_exp5_VisualSearchExperiment,2024.1.5,None,2024-10-10 18h45.31.200637 +0530,
158,0,158,0,371.56011439999565,,371.51071609999053,5,371.56011439999565,371.56011439999565,0.031492200039792806,378.7057978999801,[-0.026041666666666668],[-0.022135416666666668],[1],[0],[0],[7.164107899996452],['target'],Participant4,001,2024-10-10_18h45.12.578,D3_exp5_VisualSearchExperiment,2024.1.5,None,2024-10-10 18h45.31.200637 +0530,
159,0,159,0,378.7609124999726,,378.7130999999936,5,378.7609124999726,378.7609124999726,0.03267339995363727,381.27293440001085,[-0.3333333333333333],[-0.4375],[1],[0],[0],[2.5277449000277556],['target'],Participant4,001,2024-10-10_18h45.12.578,D3_exp5_VisualSearchExperiment,2024.1.5,None,2024-10-10 18h45.31.200637 +0530,
160,0,160,0,381.32738959998824,,381.280264800007,5,381.32738959998824,381.32738959998824,0.03364460001466796,382.9067151999916,[0.05859375],[0.2669270833333333],[1],[0],[0],[1.5940643000067212],['target'],Participant4,001,2024-10-10_18h45.12.578,D3_exp5_VisualSearchExperiment,2024.1.5,None,2024-10-10 18h45.31.200637 +0530,
161,0,161,0,382.93416850001086,,382.9109826000058,5,382.93416850001086,382.93416850001086,0.017080399964470416,384.85645490000024,[-0.11328125],[-0.02734375],[1],[0],[0],[1.928717400005553],['target'],Participant4,001,2024-10-10_18h45.12.578,D3_exp5_VisualSearchExperiment,2024.1.5,None,2024-10-10 18h45.31.200637 +0530,
162,0,162,0,384.9028168999939,,384.8629160000128,5,384.9028168999939,384.9028168999939,0.025148099986836314,386.5239888000069,[0.2421875],[0.22916666666666666],[1],[0],[0],[1.6364695000229403],['target'],Participant4,001,2024-10-10_18h45.12.578,D3_exp5_VisualSearchExperiment,2024.1.5,None,2024-10-10 18h45.31.200637 +0530,
163,0,163,0,386.6032078000135,,386.531618900015,10,386.6032078000135,386.6032078000135,0.056734300043899566,388.3742271999945,[0.1484375],[-0.024739583333333332],[1],[0],[0],[1.7869892999879085],['target'],Participant4,001,2024-10-10_18h45.12.578,D3_exp5_VisualSearchExperiment,2024.1.5,None,2024-10-10 18h45.31.200637 +0530,
164,0,164,0,388.45356549997814,,388.37980779999634,10,388.45356549997814,388.45356549997814,0.053437899972777814,390.8738632000168,[-0.17578125],[-0.3893229166666667],[1],[0],[0],[2.4411119000287727],['target'],Participant4,001,2024-10-10_18h45.12.578,D3_exp5_VisualSearchExperiment,2024.1.5,None,2024-10-10 18h45.31.200637 +0530,
165,0,165,0,390.95213449996663,,390.8809240999981,10,390.95213449996663,390.95213449996663,0.05447400000412017,392.97904299997026,[0.3815104166666667],[0.00390625],[1],[0],[0],[2.0444108999799937],['target'],Participant4,001,2024-10-10_18h45.12.578,D3_exp5_VisualSearchExperiment,2024.1.5,None,2024-10-10 18h45.31.200637 +0530,
166,0,166,0,393.02816089999396,,392.9859409999917,5,393.02816089999396,393.02816089999396,0.030082899960689247,395.5742461999762,[-0.033854166666666664],[0.4114583333333333],[1],[0],[0],[2.559252400009427],['target'],Participant4,001,2024-10-10_18h45.12.578,D3_exp5_VisualSearchExperiment,2024.1.5,None,2024-10-10 18h45.31.200637 +0530,
167,0,167,0,395.68544969998766,,395.5798881999799,10,395.68544969998766,395.68544969998766,0.056472300027962774,398.5775412999792,[-0.046875],[0.2421875],[1],[0],[0],[2.941617899981793],['target'],Participant4,001,2024-10-10_18h45.12.578,D3_exp5_VisualSearchExperiment,2024.1.5,None,2024-10-10 18h45.31.200637 +0530,
168,0,168,0,398.65239349997137,,398.5842130999663,10,398.65239349997137,398.65239349997137,0.05146250000689179,400.6695415999857,[-0.03515625],[-0.055989583333333336],[1],[0],[0],[2.0347967999987304],['target'],Participant4,001,2024-10-10_18h45.12.578,D3_exp5_VisualSearchExperiment,2024.1.5,None,2024-10-10 18h45.31.200637 +0530,
169,0,169,0,400.70537420001347,,400.67524219996994,5,400.70537420001347,400.70537420001347,0.020962300011888146,474.33288979995996,[0.4986979166666667],[0.359375],[1],[0],[0],[73.6371599000413],['target'],Participant4,001,2024-10-10_18h45.12.578,D3_exp5_VisualSearchExperiment,2024.1.5,None,2024-10-10 18h45.31.200637 +0530,
170,0,170,0,474.4222219999647,,474.3390618999838,10,474.4222219999647,474.4222219999647,0.05721080000512302,477.01328750001267,[0.11848958333333333],[-0.11588541666666667],[1],[0],[0],[2.6175971000338905],['target'],Participant4,001,2024-10-10_18h45.12.578,D3_exp5_VisualSearchExperiment,2024.1.5,None,2024-10-10 18h45.31.200637 +0530,
171,0,171,0,477.097346799972,,477.0190181999933,10,477.097346799972,477.097346799972,0.05741710000438616,478.64440459996695,[0.18229166666666666],[-0.19661458333333334],[1],[0],[0],[1.5684963000239804],['target'],Participant4,001,2024-10-10_18h45.12.578,D3_exp5_VisualSearchExperiment,2024.1.5,None,2024-10-10 18h45.31.200637 +0530,
172,0,172,0,478.69991049997043,,478.6518027000129,5,478.69991049997043,478.69991049997043,0.03395339997950941,481.00263659999473,[-0.16796875],[0.3580729166666667],[1],[0],[0],[2.3175796000286937],['target'],Participant4,001,2024-10-10_18h45.12.578,D3_exp5_VisualSearchExperiment,2024.1.5,None,2024-10-10 18h45.31.200637 +0530,
173,0,173,0,481.0534779999871,,481.0083855999983,5,481.0534779999871,481.0534779999871,0.031508299987763166,484.36735499999486,[-0.2565104166666667],[0.3333333333333333],[1],[0],[0],[3.327483300003223],['target'],Participant4,001,2024-10-10_18h45.12.578,D3_exp5_VisualSearchExperiment,2024.1.5,None,2024-10-10 18h45.31.200637 +0530,
174,0,174,0,484.4221530999639,,484.3746406999999,5,484.4221530999639,484.4221530999639,0.03468310000607744,486.2182235000073,[-0.35546875],[0.46484375],[1],[0],[0],[1.8097350999596529],['target'],Participant4,001,2024-10-10_18h45.12.578,D3_exp5_VisualSearchExperiment,2024.1.5,None,2024-10-10 18h45.31.200637 +0530,
175,0,175,0,486.3082214000169,,486.2258799999836,10,486.3082214000169,486.3082214000169,0.06190740002784878,488.1693290999974,[-0.15755208333333334],[-0.16015625],[1],[0],[0],[1.8823485000175424],['target'],Participant4,001,2024-10-10_18h45.12.578,D3_exp5_VisualSearchExperiment,2024.1.5,None,2024-10-10 18h45.31.200637 +0530,
176,0,176,0,488.2431574999937,,488.174626299995,10,488.2431574999937,488.2431574999937,0.05131549999350682,490.084389799973,[0.3333333333333333],[-0.2747395833333333],[1],[0],[0],[1.858973199967295],['target'],Participant4,001,2024-10-10_18h45.12.578,D3_exp5_VisualSearchExperiment,2024.1.5,None,2024-10-10 18h45.31.200637 +0530,
177,0,177,0,490.16464550001547,,490.08965239999816,10,490.16464550001547,490.16464550001547,0.05397619999712333,492.5509630999877,[-0.020833333333333332],[0.15755208333333334],[1],[0],[0],[2.4078880999586545],['target'],Participant4,001,2024-10-10_18h45.12.578,D3_exp5_VisualSearchExperiment,2024.1.5,None,2024-10-10 18h45.31.200637 +0530,
178,0,178,0,492.6083811999997,,492.5539803999709,10,492.6083811999997,492.6083811999997,0.03928430000087246,495.0300530999666,[-0.049479166666666664],[-0.4674479166666667],[1],[0],[0],[2.4366634000325575],['target'],Participant4,001,2024-10-10_18h45.12.578,D3_exp5_VisualSearchExperiment,2024.1.5,None,2024-10-10 18h45.31.200637 +0530,
179,0,179,0,495.0990750999772,,495.03752369998256,10,495.0990750999772,495.0990750999772,0.04437849996611476,497.1736166999908,[-0.3528645833333333],[0.16276041666666666],[1],[0],[0],[2.0926428000093438],['target'],Participant4,001,2024-10-10_18h45.12.578,D3_exp5_VisualSearchExperiment,2024.1.5,None,2024-10-10 18h45.31.200637 +0530,
180,0,180,0,497.2679871,,497.1795919999713,10,497.2679871,497.2679871,0.06047510000644252,499.43473949999316,[0.484375],[-0.2877604166666667],[1],[0],[0],[2.1954978000139818],['target'],Participant4,001,2024-10-10_18h45.12.578,D3_exp5_VisualSearchExperiment,2024.1.5,None,2024-10-10 18h45.31.200637 +0530,
181,0,181,0,499.463971899997,,499.43763860000763,5,499.463971899997,499.463971899997,0.017843300011008978,500.88444619998336,[0.020833333333333332],[-0.13020833333333334],[1],[0],[0],[1.4290840000030585],['target'],Participant4,001,2024-10-10_18h45.12.578,D3_exp5_VisualSearchExperiment,2024.1.5,None,2024-10-10 18h45.31.200637 +0530,
182,0,182,0,500.9585721999756,,500.88727949996246,10,500.9585721999756,500.9585721999756,0.04650709999259561,502.26686669996707,[-0.005208333333333333],[-0.15494791666666666],[1],[0],[0],[1.3333235000027344],['target'],Participant4,001,2024-10-10_18h45.12.578,D3_exp5_VisualSearchExperiment,2024.1.5,None,2024-10-10 18h45.31.200637 +0530,
183,0,183,0,502.2925679999753,,502.26950890000444,5,502.2925679999753,502.2925679999753,0.016332699975464493,503.65099880000344,[0.06901041666666667],[-0.20963541666666666],[1],[0],[0],[1.3652674999902956],['target'],Participant4,001,2024-10-10_18h45.12.578,D3_exp5_VisualSearchExperiment,2024.1.5,None,2024-10-10 18h45.31.200637 +0530,
184,0,184,0,503.70344209996983,,503.6536608999595,10,503.70344209996983,503.70344209996983,0.03612399997655302,505.0182875999599,[0.2578125],[-0.06901041666666667],[1],[0],[0],[1.3284725000266917],['target'],Participant4,001,2024-10-10_18h45.12.578,D3_exp5_VisualSearchExperiment,2024.1.5,None,2024-10-10 18h45.31.200637 +0530,
185,0,185,0,505.0601193999755,,505.0209495999734,10,505.0601193999755,505.0601193999755,0.02904420002596453,506.9341851999634,[-0.15104166666666666],[-0.3424479166666667],[1],[0],[0],[1.8843470999854617],['target'],Participant4,001,2024-10-10_18h45.12.578,D3_exp5_VisualSearchExperiment,2024.1.5,None,2024-10-10 18h45.31.200637 +0530,
186,0,186,0,506.96020619996125,,506.93725560000166,5,506.96020619996125,506.96020619996125,0.015754599997308105,509.03453000000445,[0.3932291666666667],[0.4205729166666667],[1],[0],[0],[2.0817358000203967],['target'],Participant4,001,2024-10-10_18h45.12.578,D3_exp5_VisualSearchExperiment,2024.1.5,None,2024-10-10 18h45.31.200637 +0530,
187,0,187,0,509.05970360001083,,509.03719699999783,5,509.05970360001083,509.05970360001083,0.015774000028613955,511.37436570000136,[-0.421875],[0.3802083333333333],[1],[0],[0],[2.3214149000123143],['target'],Participant4,001,2024-10-10_18h45.12.578,D3_exp5_VisualSearchExperiment,2024.1.5,None,2024-10-10 18h45.31.200637 +0530,
188,0,188,0,511.43587899999693,,511.3786824999843,10,511.43587899999693,511.43587899999693,0.04723460000241175,514.136193000013,[-0.4010416666666667],[-0.3763020833333333],[1],[0],[0],[2.710240399988834],['target'],Participant4,001,2024-10-10_18h45.12.578,D3_exp5_VisualSearchExperiment,2024.1.5,None,2024-10-10 18h45.31.200637 +0530,
189,0,189,0,514.1794671000098,,514.1412309000152,5,514.1794671000098,514.1794671000098,0.02680940000573173,516.0353581999661,[0.22786458333333334],[-0.3046875],[1],[0],[0],[1.8680587999988347],['target'],Participant4,001,2024-10-10_18h45.12.578,D3_exp5_VisualSearchExperiment,2024.1.5,None,2024-10-10 18h45.31.200637 +0530,
190,0,190,0,516.0769240999944,,516.0395423999871,10,516.0769240999944,516.0769240999944,0.027804900018963963,518.0017787999823,[0.20963541666666666],[-0.4114583333333333],[1],[0],[0],[1.9346913999761455],['target'],Participant4,001,2024-10-10_18h45.12.578,D3_exp5_VisualSearchExperiment,2024.1.5,None,2024-10-10 18h45.31.200637 +0530,
191,0,191,0,518.0303328000009,,518.0043886000058,5,518.0303328000009,518.0303328000009,0.01905030000489205,520.2188795999973,[-0.078125],[0.33984375],[1],[0],[0],[2.1956064000260085],['target'],Participant4,001,2024-10-10_18h45.12.578,D3_exp5_VisualSearchExperiment,2024.1.5,None,2024-10-10 18h45.31.200637 +0530,
192,0,192,0,520.25974889996,,520.2214505000156,10,520.25974889996,520.25974889996,0.027602799993474036,522.1694591999985,[0.1953125],[0.0546875],[1],[0],[0],[1.9205333000281826],['target'],Participant4,001,2024-10-10_18h45.12.578,D3_exp5_VisualSearchExperiment,2024.1.5,None,2024-10-10 18h45.31.200637 +0530,
193,0,193,0,522.1969760999782,,522.1720883999951,5,522.1969760999782,522.1969760999782,0.017880799947306514,523.8695505000069,[0.39453125],[0.4270833333333333],[1],[0],[0],[1.6797057999647222],['target'],Participant4,001,2024-10-10_18h45.12.578,D3_exp5_VisualSearchExperiment,2024.1.5,None,2024-10-10 18h45.31.200637 +0530,
194,0,194,0,523.9018314999994,,523.87220719998,5,523.9018314999994,523.9018314999994,0.02036750002298504,525.5861552999704,[-0.44140625],[0.4205729166666667],[1],[0],[0],[1.6937474999576807],['target'],Participant4,001,2024-10-10_18h45.12.578,D3_exp5_VisualSearchExperiment,2024.1.5,None,2024-10-10 18h45.31.200637 +0530,
195,0,195,0,525.629790499981,,525.5887967000017,10,525.629790499981,525.629790499981,0.028075999987777323,527.5705316999811,[-0.2786458333333333],[-0.1875],[1],[0],[0],[1.9534437999827787],['target'],Participant4,001,2024-10-10_18h45.12.578,D3_exp5_VisualSearchExperiment,2024.1.5,None,2024-10-10 18h45.31.200637 +0530,
196,0,196,0,527.6282543999841,,527.5734298999887,10,527.6282543999841,527.6282543999841,0.03932869998971,529.3373892999953,[0.14322916666666666],[0.08072916666666667],[1],[0],[0],[1.724590600002557],['target'],Participant4,001,2024-10-10_18h45.12.578,D3_exp5_VisualSearchExperiment,2024.1.5,None,2024-10-10 18h45.31.200637 +0530,
197,0,197,0,529.3654931999627,,529.3422733999905,5,529.3654931999627,529.3654931999627,0.0169778999988921,531.3208146999823,[0.4348958333333333],[-0.1953125],[1],[0],[0],[1.9622418000362813],['target'],Participant4,001,2024-10-10_18h45.12.578,D3_exp5_VisualSearchExperiment,2024.1.5,None,2024-10-10 18h45.31.200637 +0530,
198,0,198,0,531.3454507999704,,531.3234216999845,5,531.3454507999704,531.3454507999704,0.015266699949279428,533.420291699993,[0.2838541666666667],[0.052083333333333336],[1],[0],[0],[2.081749100005254],['target'],Participant4,001,2024-10-10_18h45.12.578,D3_exp5_VisualSearchExperiment,2024.1.5,None,2024-10-10 18h45.31.200637 +0530,
199,0,199,0,533.4443339999998,,533.422899600002,5,533.4443339999998,533.4443339999998,0.014767000044230372,535.8204411999905,[0.17447916666666666],[-0.421875],[1],[0],[0],[2.382919199997559],['target'],Participant4,001,2024-10-10_18h45.12.578,D3_exp5_VisualSearchExperiment,2024.1.5,None,2024-10-10 18h45.31.200637 +0530,
