trials.thisRepN,trials.thisTrialN,trials.thisN,trials.thisIndex,thisRow.t,notes,trial.started,num_distr,fixation.started,target.started,mouse.started,fixation.stopped,trial.stopped,mouse.x,mouse.y,mouse.leftButton,mouse.midButton,mouse.rightButton,mouse.time,mouse.clicked_name,participant,session,date,expName,psychopyVersion,frameRate,expStart,
0,0,0,0,0.14056150009855628,,0.03357010008767247,10,0.14056150009855628,0.14056150009855628,0.09585950011387467,1.1724761999212205,2.145115500316024,[0.14666666666666667],[-0.445],[1],[0],[0],[2.0481368000619113],['target'],P4,001,2024-10-10_19h13.35.410,visual search task,2024.1.5,None,2024-10-10 19h13.54.150253 +0530,
1,0,1,0,2.200566300190985,,2.152071800082922,10,2.200566300190985,2.200566300190985,0.034738400019705296,3.239218800328672,3.576125599909574,[-0.075],[0.29],[1],[0],[0],[1.3898616000078619],['target'],P4,001,2024-10-10_19h13.35.410,visual search task,2024.1.5,None,2024-10-10 19h13.54.150253 +0530,
2,0,2,0,3.6065495000220835,,3.580634499900043,5,3.6065495000220835,3.6065495000220835,0.017030700109899044,4.608083500061184,5.12593450024724,[-0.23],[0.17166666666666666],[1],[0],[0],[1.5286671998910606],['target'],P4,001,2024-10-10_19h13.35.410,visual search task,2024.1.5,None,2024-10-10 19h13.54.150253 +0530,
3,0,3,0,5.172246499918401,,5.1341460002586246,5,5.172246499918401,5.172246499918401,0.027843100018799305,6.1744158999063075,6.2927920003421605,[-0.44666666666666666],[0.305],[1],[0],[0],[1.1320478999987245],['target'],P4,001,2024-10-10_19h13.35.410,visual search task,2024.1.5,None,2024-10-10 19h13.54.150253 +0530,
4,0,4,0,6.346476800274104,,6.297337499912828,10,6.346476800274104,6.346476800274104,0.03515279991552234,7.372600100003183,7.740753300022334,[0.46],[-0.31333333333333335],[1],[0],[0],[1.4084895998239517],['target'],P4,001,2024-10-10_19h13.35.410,visual search task,2024.1.5,None,2024-10-10 19h13.54.150253 +0530,
5,0,5,0,7.7958194999955595,,7.748698099981993,5,7.7958194999955595,7.7958194999955595,0.03200159966945648,8.80737610021606,9.126694700215012,[0.08],[0.09],[1],[0],[0],[1.3472283002920449],['target'],P4,001,2024-10-10_19h13.35.410,visual search task,2024.1.5,None,2024-10-10 19h13.54.150253 +0530,
6,0,6,0,9.18245410034433,,9.131563500035554,10,9.18245410034433,9.18245410034433,0.035757599864155054,10.207261300180107,10.407978300005198,[-0.20333333333333334],[-0.44333333333333336],[1],[0],[0],[1.2411494003608823],[],P4,001,2024-10-10_19h13.35.410,visual search task,2024.1.5,None,2024-10-10 19h13.54.150253 +0530,
7,0,7,0,10.46411560010165,,10.412526600062847,10,10.46411560010165,10.46411560010165,0.037112100049853325,11.489486200269312,11.657554400153458,[-0.38],[-0.2683333333333333],[1],[0],[0],[1.2082821000367403],[],P4,001,2024-10-10_19h13.35.410,visual search task,2024.1.5,None,2024-10-10 19h13.54.150253 +0530,
8,0,8,0,11.789435100276023,,11.665941500104964,10,11.789435100276023,11.789435100276023,0.060730500146746635,12.806499500293285,13.124727000016719,[0.45666666666666667],[-0.26666666666666666],[1],[0],[0],[1.399113700259477],[],P4,001,2024-10-10_19h13.35.410,visual search task,2024.1.5,None,2024-10-10 19h13.54.150253 +0530,
9,0,9,0,13.179505900014192,,13.132962000090629,5,13.179505900014192,13.179505900014192,0.03150520008057356,14.19061590032652,15.107880900148302,[-0.3566666666666667],[0.405],[1],[0],[0],[1.9443474002182484],[],P4,001,2024-10-10_19h13.35.410,visual search task,2024.1.5,None,2024-10-10 19h13.54.150253 +0530,
10,0,10,0,15.20628760010004,,15.115720400121063,10,15.20628760010004,15.20628760010004,0.05920850019901991,16.244916799943894,16.190583900082856,[0.325],[0.44],[1],[0],[0],[1.0167462998069823],[],P4,001,2024-10-10_19h13.35.410,visual search task,2024.1.5,None,2024-10-10 19h13.54.150253 +0530,
11,0,11,0,16.244916799943894,,16.198737100232393,5,16.244916799943894,16.244916799943894,0.0323084001429379,,17.043764700181782,[-0.185],[0.1],[1],[0],[0],[0.8137043002061546],[],P4,001,2024-10-10_19h13.35.410,visual search task,2024.1.5,None,2024-10-10 19h13.54.150253 +0530,
12,0,12,0,17.13211160013452,,17.051588899921626,10,17.13211160013452,17.13211160013452,0.058322499971836805,18.15587730007246,18.29072550032288,[-0.315],[0.04],[1],[0],[0],[1.1819310998544097],['target'],P4,001,2024-10-10_19h13.35.410,visual search task,2024.1.5,None,2024-10-10 19h13.54.150253 +0530,
13,0,13,0,18.382476600352675,,18.299122500233352,10,18.382476600352675,18.382476600352675,0.06099530030041933,19.406022100243717,19.47557030012831,[0.3],[0.09],[1],[0],[0],[1.1163972998037934],['target'],P4,001,2024-10-10_19h13.35.410,visual search task,2024.1.5,None,2024-10-10 19h13.54.150253 +0530,
14,0,14,0,19.529063700232655,,19.483806900214404,5,19.529063700232655,19.529063700232655,0.031249199993908405,,20.393362400121987,[-0.025],[0.09666666666666666],[1],[0],[0],[0.8791883997619152],['target'],P4,001,2024-10-10_19h13.35.410,visual search task,2024.1.5,None,2024-10-10 19h13.54.150253 +0530,
15,0,15,0,20.47397940000519,,20.40146890003234,10,20.47397940000519,20.47397940000519,0.05740110017359257,21.47372360015288,21.641185500193387,[0.435],[0.35],[1],[0],[0],[1.1835934999398887],['target'],P4,001,2024-10-10_19h13.35.410,visual search task,2024.1.5,None,2024-10-10 19h13.54.150253 +0530,
16,0,16,0,21.67458280036226,,21.646027700044215,5,21.67458280036226,21.67458280036226,0.019806900061666965,22.69101360021159,22.97628840012476,[0.028333333333333332],[0.495],[1],[0],[0],[1.3110140999779105],['target'],P4,001,2024-10-10_19h13.35.410,visual search task,2024.1.5,None,2024-10-10 19h13.54.150253 +0530,
17,0,17,0,23.042892900295556,,22.9845484001562,10,23.042892900295556,23.042892900295556,0.04557229997590184,24.056876100134104,24.12713810009882,[0.23],[0.3233333333333333],[1],[0],[0],[1.0984423998743296],['target'],P4,001,2024-10-10_19h13.35.410,visual search task,2024.1.5,None,2024-10-10 19h13.54.150253 +0530,
18,0,18,0,24.159444900229573,,24.131717800162733,5,24.159444900229573,24.159444900229573,0.018813000060617924,25.194042100105435,25.160399100277573,[0.085],[-0.215],[1],[0],[0],[1.010407599620521],[],P4,001,2024-10-10_19h13.35.410,visual search task,2024.1.5,None,2024-10-10 19h13.54.150253 +0530,
19,0,19,0,25.194042100105435,,25.164909600280225,5,25.194042100105435,25.194042100105435,0.020010599866509438,26.2078256001696,26.460755300242454,[-0.24333333333333335],[0.24166666666666667],[1],[0],[0],[1.2761388001963496],['target'],P4,001,2024-10-10_19h13.35.410,visual search task,2024.1.5,None,2024-10-10 19h13.54.150253 +0530,
20,0,20,0,26.546641800086945,,26.46854030014947,10,26.546641800086945,26.546641800086945,0.05774389998987317,27.55705210007727,28.076291100122035,[0.40166666666666667],[0.045],[1],[0],[0],[1.5512311002239585],[],P4,001,2024-10-10_19h13.35.410,visual search task,2024.1.5,None,2024-10-10 19h13.54.150253 +0530,
21,0,21,0,28.13288119994104,,28.08084090007469,10,28.13288119994104,28.13288119994104,0.03647270007058978,29.172544800210744,29.175471799913794,[0.27166666666666667],[0.07],[1],[0],[0],[1.058521100319922],[],P4,001,2024-10-10_19h13.35.410,visual search task,2024.1.5,None,2024-10-10 19h13.54.150253 +0530,
22,0,22,0,29.272506800014526,,29.18329180032015,10,29.272506800014526,29.272506800014526,0.060557599645107985,,30.023282000329345,[-0.03833333333333333],[0.13666666666666666],[1],[0],[0],[0.7806637999601662],['target'],P4,001,2024-10-10_19h13.35.410,visual search task,2024.1.5,None,2024-10-10 19h13.54.150253 +0530,
23,0,23,0,30.080849200021476,,30.02786030014977,10,30.080849200021476,30.080849200021476,0.03925530007109046,,30.741211200132966,[0.125],[-0.11833333333333333],[1],[0],[0],[0.6745806001126766],[],P4,001,2024-10-10_19h13.35.410,visual search task,2024.1.5,None,2024-10-10 19h13.54.150253 +0530,
24,0,24,0,30.773933600168675,,30.745998000260442,5,30.773933600168675,30.773933600168675,0.01915219984948635,31.773597599938512,32.49358840007335,[-0.3433333333333333],[0.4816666666666667],[1],[0],[0],[1.7288069003261626],['target'],P4,001,2024-10-10_19h13.35.410,visual search task,2024.1.5,None,2024-10-10 19h13.54.150253 +0530,
25,0,25,0,32.52630850020796,,32.498321500141174,5,32.52630850020796,32.52630850020796,0.01926460023969412,33.54026779998094,33.708392899949104,[-0.475],[0.4633333333333333],[1],[0],[0],[1.1911381999962032],['target'],P4,001,2024-10-10_19h13.35.410,visual search task,2024.1.5,None,2024-10-10 19h13.54.150253 +0530,
26,0,26,0,33.743436499964446,,33.713020000141114,5,33.743436499964446,33.743436499964446,0.0200743000023067,34.75754880020395,35.02776310034096,[0.44333333333333336],[0.01],[1],[0],[0],[1.2949668997898698],['target'],P4,001,2024-10-10_19h13.35.410,visual search task,2024.1.5,None,2024-10-10 19h13.54.150253 +0530,
27,0,27,0,35.12059639999643,,35.035853300243616,10,35.12059639999643,35.12059639999643,0.062162999995052814,36.155789700336754,36.3242093003355,[-0.405],[-0.12666666666666668],[1],[0],[0],[1.227116399910301],['target'],P4,001,2024-10-10_19h13.35.410,visual search task,2024.1.5,None,2024-10-10 19h13.54.150253 +0530,
28,0,28,0,36.37747810035944,,36.33205890003592,5,36.37747810035944,36.37747810035944,0.0319082997739315,37.390316100325435,37.44165450008586,[-0.06333333333333334],[-0.44666666666666666],[1],[0],[0],[1.0786913000047207],[],P4,001,2024-10-10_19h13.35.410,visual search task,2024.1.5,None,2024-10-10 19h13.54.150253 +0530,
29,0,29,0,37.49617900000885,,37.44613420031965,10,37.49617900000885,37.49617900000885,0.03612919989973307,,38.4573548999615,[0.17666666666666667],[-0.3016666666666667],[1],[0],[0],[0.9755690996535122],['target'],P4,001,2024-10-10_19h13.35.410,visual search task,2024.1.5,None,2024-10-10 19h13.54.150253 +0530,
30,0,30,0,38.518219500314444,,38.46210419991985,10,38.518219500314444,38.518219500314444,0.0396630996838212,,39.35786550026387,[-0.24333333333333335],[-0.06166666666666667],[1],[0],[0],[0.8566288999281824],[],P4,001,2024-10-10_19h13.35.410,visual search task,2024.1.5,None,2024-10-10 19h13.54.150253 +0530,
31,0,31,0,39.42271570023149,,39.365755199920386,10,39.42271570023149,39.42271570023149,0.043713200371712446,,40.22598539991304,[0.3],[-0.028333333333333332],[1],[0],[0],[0.8175023999065161],['target'],P4,001,2024-10-10_19h13.35.410,visual search task,2024.1.5,None,2024-10-10 19h13.54.150253 +0530,
32,0,32,0,40.26992980018258,,40.23387819994241,5,40.26992980018258,40.26992980018258,0.027066100388765335,41.27430730033666,41.4585033999756,[0.2783333333333333],[-0.4583333333333333],[1],[0],[0],[1.1987954997457564],['target'],P4,001,2024-10-10_19h13.35.410,visual search task,2024.1.5,None,2024-10-10 19h13.54.150253 +0530,
33,0,33,0,41.51347539993003,,41.46304480032995,10,41.51347539993003,41.51347539993003,0.03504930017516017,,42.492150800302625,[-0.27166666666666667],[0.10166666666666667],[1],[0],[0],[0.994611400179565],['target'],P4,001,2024-10-10_19h13.35.410,visual search task,2024.1.5,None,2024-10-10 19h13.54.150253 +0530,
34,0,34,0,42.54973229998723,,42.49676770018414,10,42.54973229998723,42.54973229998723,0.03824950009584427,43.55786960013211,43.690982799977064,[0.42333333333333334],[-0.095],[1],[0],[0],[1.156237999908626],['target'],P4,001,2024-10-10_19h13.35.410,visual search task,2024.1.5,None,2024-10-10 19h13.54.150253 +0530,
35,0,35,0,43.762336700223386,,43.69939379999414,10,43.762336700223386,43.762336700223386,0.050025700125843287,,44.52612840011716,[-0.095],[0.13333333333333333],[1],[0],[0],[0.7779863001778722],[],P4,001,2024-10-10_19h13.35.410,visual search task,2024.1.5,None,2024-10-10 19h13.54.150253 +0530,
36,0,36,0,44.5797413000837,,44.53436580020934,5,44.5797413000837,44.5797413000837,0.03183639980852604,,45.44237600034103,[0.18],[-0.37333333333333335],[1],[0],[0],[0.8775726999156177],['target'],P4,001,2024-10-10_19h13.35.410,visual search task,2024.1.5,None,2024-10-10 19h13.54.150253 +0530,
37,0,37,0,45.525299000088125,,45.44707640027627,10,45.525299000088125,45.525299000088125,0.041282199788838625,,46.44123349990696,[0.24833333333333332],[0.115],[1],[0],[0],[0.9533375999890268],['target'],P4,001,2024-10-10_19h13.35.410,visual search task,2024.1.5,None,2024-10-10 19h13.54.150253 +0530,
38,0,38,0,46.51090140035376,,46.446279800031334,10,46.51090140035376,46.51090140035376,0.04564939998090267,47.52351179998368,47.64184330031276,[-0.415],[-0.04],[1],[0],[0],[1.150275900028646],[],P4,001,2024-10-10_19h13.35.410,visual search task,2024.1.5,None,2024-10-10 19h13.54.150253 +0530,
39,0,39,0,47.67546509997919,,47.64649400021881,5,47.67546509997919,47.67546509997919,0.0191211998462677,,48.45776019990444,[-0.14666666666666667],[-0.16666666666666666],[1],[0],[0],[0.7927085999399424],['target'],P4,001,2024-10-10_19h13.35.410,visual search task,2024.1.5,None,2024-10-10 19h13.54.150253 +0530,
40,0,40,0,48.51978649990633,,48.462303100153804,10,48.51978649990633,48.51978649990633,0.03817029995843768,,49.408779200166464,[-0.3416666666666667],[0.24],[1],[0],[0],[0.9086021999828517],['target'],P4,001,2024-10-10_19h13.35.410,visual search task,2024.1.5,None,2024-10-10 19h13.54.150253 +0530,
41,0,41,0,49.44199590012431,,49.41341690020636,5,49.44199590012431,49.44199590012431,0.01967740012332797,50.45693250000477,50.45830069994554,[0.3283333333333333],[-0.31],[1],[0],[0],[1.025745500344783],[],P4,001,2024-10-10_19h13.35.410,visual search task,2024.1.5,None,2024-10-10 19h13.54.150253 +0530,
42,0,42,0,50.49679720029235,,50.46303760027513,5,50.49679720029235,50.49679720029235,0.02365519991144538,51.52350650029257,51.61106860032305,[0.31],[0.08333333333333333],[1],[0],[0],[1.124713399913162],[],P4,001,2024-10-10_19h13.35.410,visual search task,2024.1.5,None,2024-10-10 19h13.54.150253 +0530,
43,0,43,0,51.662767299916595,,51.618891700170934,5,51.662767299916595,51.662767299916595,0.030216199811547995,52.689999100286514,52.79259969992563,[-0.4083333333333333],[0.43833333333333335],[1],[0],[0],[1.1444965000264347],['target'],P4,001,2024-10-10_19h13.35.410,visual search task,2024.1.5,None,2024-10-10 19h13.54.150253 +0530,
44,0,44,0,52.851957000326365,,52.80044020013884,5,52.851957000326365,52.851957000326365,0.03527799993753433,53.858090800233185,53.878614500164986,[0.36666666666666664],[-0.13333333333333333],[1],[0],[0],[1.043739499989897],['target'],P4,001,2024-10-10_19h13.35.410,visual search task,2024.1.5,None,2024-10-10 19h13.54.150253 +0530,
45,0,45,0,53.94413600023836,,53.886340599972755,10,53.94413600023836,53.94413600023836,0.04413020005449653,,54.840903100091964,[-0.15166666666666667],[0.15],[1],[0],[0],[0.9114550999365747],['target'],P4,001,2024-10-10_19h13.35.410,visual search task,2024.1.5,None,2024-10-10 19h13.54.150253 +0530,
46,0,46,0,54.93952640006319,,54.84891560021788,10,54.93952640006319,54.93952640006319,0.05829939991235733,55.94051850028336,56.10817770007998,[-0.4716666666666667],[0.035],[1],[0],[0],[1.2021804000250995],['target'],P4,001,2024-10-10_19h13.35.410,visual search task,2024.1.5,None,2024-10-10 19h13.54.150253 +0530,
47,0,47,0,56.16557600023225,,56.11299640033394,10,56.16557600023225,56.16557600023225,0.03729310026392341,57.17357320012525,57.27344730030745,[-0.39],[0.09666666666666666],[1],[0],[0],[1.1237188000231981],['target'],P4,001,2024-10-10_19h13.35.410,visual search task,2024.1.5,None,2024-10-10 19h13.54.150253 +0530,
48,0,48,0,57.32873110007495,,57.27805620012805,10,57.32873110007495,57.32873110007495,0.03748170007020235,58.372781900223345,58.60768919996917,[0.46166666666666667],[0.47],[1],[0],[0],[1.2925113998353481],['target'],P4,001,2024-10-10_19h13.35.410,visual search task,2024.1.5,None,2024-10-10 19h13.54.150253 +0530,
49,0,49,0,58.67515269992873,,58.61568820010871,10,58.67515269992873,58.67515269992873,0.04638480022549629,59.706016100011766,59.807628999929875,[0.09166666666666666],[-0.09666666666666666],[1],[0],[0],[1.1466854000464082],['target'],P4,001,2024-10-10_19h13.35.410,visual search task,2024.1.5,None,2024-10-10 19h13.54.150253 +0530,
50,0,50,0,59.88967030029744,,59.81564770033583,10,59.88967030029744,59.88967030029744,0.04794170008972287,60.905916300136596,61.040887400042266,[0.465],[0.22666666666666666],[1],[0],[0],[1.1784414001740515],['target'],P4,001,2024-10-10_19h13.35.410,visual search task,2024.1.5,None,2024-10-10 19h13.54.150253 +0530,
51,0,51,0,61.10953989997506,,61.04896670021117,10,61.10953989997506,61.10953989997506,0.04760910011827946,62.15592489996925,62.3910809000954,[0.385],[-0.46],[1],[0],[0],[1.2956615001894534],['target'],P4,001,2024-10-10_19h13.35.410,visual search task,2024.1.5,None,2024-10-10 19h13.54.150253 +0530,
52,0,52,0,62.435709699988365,,62.39910180028528,5,62.435709699988365,62.435709699988365,0.028931400272995234,,63.17643909994513,[-0.32166666666666666],[-0.145],[1],[0],[0],[0.7493964997120202],[],P4,001,2024-10-10_19h13.35.410,visual search task,2024.1.5,None,2024-10-10 19h13.54.150253 +0530,
53,0,53,0,63.231484200339764,,63.1842694003135,5,63.231484200339764,63.231484200339764,0.03303129971027374,,63.907396600116044,[-0.04],[-0.19],[1],[0],[0],[0.6909905998036265],['target'],P4,001,2024-10-10_19h13.35.410,visual search task,2024.1.5,None,2024-10-10 19h13.54.150253 +0530,
54,0,54,0,63.95879810024053,,63.91549909999594,5,63.95879810024053,63.95879810024053,0.029649300035089254,65.00658440031111,65.19319580029696,[0.4266666666666667],[-0.48333333333333334],[1],[0],[0],[1.2490145997144282],['target'],P4,001,2024-10-10_19h13.35.410,visual search task,2024.1.5,None,2024-10-10 19h13.54.150253 +0530,
55,0,55,0,65.28967950027436,,65.20098700001836,10,65.28967950027436,65.28967950027436,0.06007189955562353,66.32234890013933,66.59095459990203,[0.4083333333333333],[0.085],[1],[0],[0],[1.3308429000899196],['target'],P4,001,2024-10-10_19h13.35.410,visual search task,2024.1.5,None,2024-10-10 19h13.54.150253 +0530,
56,0,56,0,66.64500840008259,,66.5988851999864,5,66.64500840008259,66.64500840008259,0.03167980024591088,,67.62435400020331,[-0.05],[-0.4216666666666667],[1],[0],[0],[0.9948435998521745],['target'],P4,001,2024-10-10_19h13.35.410,visual search task,2024.1.5,None,2024-10-10 19h13.54.150253 +0530,
57,0,57,0,67.69880959996954,,67.63250070018694,10,67.69880959996954,67.69880959996954,0.05319450004026294,68.72241270029917,68.92407660000026,[-0.15666666666666668],[0.20333333333333334],[1],[0],[0],[1.2394320000894368],['target'],P4,001,2024-10-10_19h13.35.410,visual search task,2024.1.5,None,2024-10-10 19h13.54.150253 +0530,
58,0,58,0,68.9827733002603,,68.93192770006135,5,68.9827733002603,68.9827733002603,0.031277299858629704,,69.89209849992767,[0.4],[-0.105],[1],[0],[0],[0.929931600112468],['target'],P4,001,2024-10-10_19h13.35.410,visual search task,2024.1.5,None,2024-10-10 19h13.54.150253 +0530,
59,0,59,0,69.95798760000616,,69.89997810032219,10,69.95798760000616,69.95798760000616,0.044695999938994646,70.99093860015273,71.05852130008861,[0.3383333333333333],[-0.24666666666666667],[1],[0],[0],[1.1149675999768078],['target'],P4,001,2024-10-10_19h13.35.410,visual search task,2024.1.5,None,2024-10-10 19h13.54.150253 +0530,
60,0,60,0,71.10540380002931,,71.06651200028136,5,71.10540380002931,71.10540380002931,0.030119999777525663,72.10812650015578,72.40810710005462,[0.33666666666666667],[0.27],[1],[0],[0],[1.3122701002284884],['target'],P4,001,2024-10-10_19h13.35.410,visual search task,2024.1.5,None,2024-10-10 19h13.54.150253 +0530,
61,0,61,0,72.47506440011784,,72.41608770005405,10,72.47506440011784,72.47506440011784,0.04635900026187301,73.5224876999855,73.79193230019882,[-0.4066666666666667],[0.4083333333333333],[1],[0],[0],[1.3305403999984264],['target'],P4,001,2024-10-10_19h13.35.410,visual search task,2024.1.5,None,2024-10-10 19h13.54.150253 +0530,
62,0,62,0,73.84589360002428,,73.80020170006901,5,73.84589360002428,73.84589360002428,0.03215039987117052,74.85766510013491,75.2429006001912,[-0.31],[0.10833333333333334],[1],[0],[0],[1.411609800066799],['target'],P4,001,2024-10-10_19h13.35.410,visual search task,2024.1.5,None,2024-10-10 19h13.54.150253 +0530,
63,0,63,0,75.30562460003421,,75.25068660033867,5,75.30562460003421,75.30562460003421,0.02952949982136488,76.3246142999269,76.5449145003222,[0.235],[-0.37333333333333335],[1],[0],[0],[1.265682099852711],[],P4,001,2024-10-10_19h13.35.410,visual search task,2024.1.5,None,2024-10-10 19h13.54.150253 +0530,
64,0,64,0,76.62620340008289,,76.55323830014095,10,76.62620340008289,76.62620340008289,0.05892200022935867,77.67355260020122,77.80763130029663,[-0.09333333333333334],[-0.0016666666666666668],[1],[0],[0],[1.1966420002281666],['target'],P4,001,2024-10-10_19h13.35.410,visual search task,2024.1.5,None,2024-10-10 19h13.54.150253 +0530,
65,0,65,0,77.8890241002664,,77.81607210030779,10,77.8890241002664,77.8890241002664,0.059525399934500456,78.90595490019768,78.94109440036118,[-0.045],[-0.09666666666666666],[1],[0],[0],[1.0665865000337362],['target'],P4,001,2024-10-10_19h13.35.410,visual search task,2024.1.5,None,2024-10-10 19h13.54.150253 +0530,
66,0,66,0,79.01490630023181,,78.94899479998276,10,79.01490630023181,79.01490630023181,0.05231949966400862,80.0559737002477,80.19081950001419,[-0.31333333333333335],[0.18333333333333332],[1],[0],[0],[1.1906120995990932],['target'],P4,001,2024-10-10_19h13.35.410,visual search task,2024.1.5,None,2024-10-10 19h13.54.150253 +0530,
67,0,67,0,80.2437712000683,,80.19914339995012,5,80.2437712000683,80.2437712000683,0.030579200014472008,81.27413470018655,81.3753654002212,[0.09666666666666666],[-0.28833333333333333],[1],[0],[0],[1.1466555004008114],['target'],P4,001,2024-10-10_19h13.35.410,visual search task,2024.1.5,None,2024-10-10 19h13.54.150253 +0530,
68,0,68,0,81.42664860002697,,81.38318439992145,5,81.42664860002697,81.42664860002697,0.03006620006635785,,82.40809740033,[-0.24166666666666667],[-0.18833333333333332],[1],[0],[0],[0.9960696999914944],['target'],P4,001,2024-10-10_19h13.35.410,visual search task,2024.1.5,None,2024-10-10 19h13.54.150253 +0530,
69,0,69,0,82.44015880022198,,82.41263419995084,5,82.44015880022198,82.44015880022198,0.018932100385427475,83.4403649000451,83.50925840018317,[-0.11666666666666667],[0.17],[1],[0],[0],[1.078057600185275],['target'],P4,001,2024-10-10_19h13.35.410,visual search task,2024.1.5,None,2024-10-10 19h13.54.150253 +0530,
70,0,70,0,83.5617317003198,,83.51758090034127,5,83.5617317003198,83.5617317003198,0.03095009969547391,,84.24242410017177,[-0.24833333333333332],[0.2783333333333333],[1],[0],[0],[0.6950248996727169],[],P4,001,2024-10-10_19h13.35.410,visual search task,2024.1.5,None,2024-10-10 19h13.54.150253 +0530,
71,0,71,0,84.31565840030089,,84.25010209996253,10,84.31565840030089,84.31565840030089,0.05182280018925667,85.33891470031813,85.47465710015967,[0.25833333333333336],[0.33],[1],[0],[0],[1.173824300058186],['target'],P4,001,2024-10-10_19h13.35.410,visual search task,2024.1.5,None,2024-10-10 19h13.54.150253 +0530,
72,0,72,0,85.52799169998616,,85.48255220009014,5,85.52799169998616,85.52799169998616,0.031302900053560734,86.55781040014699,86.7272296003066,[-0.305],[-0.2866666666666667],[1],[0],[0],[1.2142734001390636],['target'],P4,001,2024-10-10_19h13.35.410,visual search task,2024.1.5,None,2024-10-10 19h13.54.150253 +0530,
73,0,73,0,86.76987970015034,,86.73504099994898,5,86.76987970015034,86.76987970015034,0.026175299659371376,87.7734782001935,88.19224460003898,[0.475],[0.02],[1],[0],[0],[1.4323293999768794],[],P4,001,2024-10-10_19h13.35.410,visual search task,2024.1.5,None,2024-10-10 19h13.54.150253 +0530,
74,0,74,0,88.24922990007326,,88.1971579999663,10,88.24922990007326,88.24922990007326,0.038566000293940306,,89.10771290026605,[0.08166666666666667],[-0.08],[1],[0],[0],[0.872720199637115],['target'],P4,001,2024-10-10_19h13.35.410,visual search task,2024.1.5,None,2024-10-10 19h13.54.150253 +0530,
75,0,75,0,89.13894970016554,,89.11222080001608,5,89.13894970016554,89.13894970016554,0.017268000170588493,90.14052970008925,90.20836389996111,[-0.44333333333333336],[0.055],[1],[0],[0],[1.0794102000072598],[],P4,001,2024-10-10_19h13.35.410,visual search task,2024.1.5,None,2024-10-10 19h13.54.150253 +0530,
76,0,76,0,90.26103750010952,,90.21296280017123,10,90.26103750010952,90.26103750010952,0.033203599974513054,91.27314920024946,91.3744365000166,[-0.37166666666666665],[-0.22166666666666668],[1],[0],[0],[1.1288081998936832],['target'],P4,001,2024-10-10_19h13.35.410,visual search task,2024.1.5,None,2024-10-10 19h13.54.150253 +0530,
77,0,77,0,91.40880540013313,,91.37898140028119,5,91.40880540013313,91.40880540013313,0.020883100107312202,,92.30844150017947,[-0.23],[0.18166666666666667],[1],[0],[0],[0.909096899908036],['target'],P4,001,2024-10-10_19h13.35.410,visual search task,2024.1.5,None,2024-10-10 19h13.54.150253 +0530,
78,0,78,0,92.35962440026924,,92.31299900030717,10,92.35962440026924,92.35962440026924,0.033254300244152546,93.39075500005856,93.72419450012967,[-0.006666666666666667],[-0.425],[1],[0],[0],[1.378210499882698],['target'],P4,001,2024-10-10_19h13.35.410,visual search task,2024.1.5,None,2024-10-10 19h13.54.150253 +0530,
79,0,79,0,93.77842110022902,,93.7327252002433,5,93.77842110022902,93.77842110022902,0.032138699665665627,,94.6623134999536,[0.11],[-0.02],[1],[0],[0],[0.8987451000139117],['target'],P4,001,2024-10-10_19h13.35.410,visual search task,2024.1.5,None,2024-10-10 19h13.54.150253 +0530,
80,0,80,0,94.71421940019354,,94.6704625999555,5,94.71421940019354,94.71421940019354,0.029482899699360132,95.7244351003319,96.02759930025786,[0.17166666666666666],[0.3616666666666667],[1],[0],[0],[1.3287141998298466],['target'],P4,001,2024-10-10_19h13.35.410,visual search task,2024.1.5,None,2024-10-10 19h13.54.150253 +0530,
81,0,81,0,96.06848450005054,,96.03533719992265,5,96.06848450005054,96.06848450005054,0.02559630014002323,,96.97427400015295,[-0.2966666666666667],[-0.04833333333333333],[1],[0],[0],[0.9142291997559369],['target'],P4,001,2024-10-10_19h13.35.410,visual search task,2024.1.5,None,2024-10-10 19h13.54.150253 +0530,
82,0,82,0,97.04417880019173,,96.98206049995497,10,97.04417880019173,97.04417880019173,0.0480859000235796,,97.99083669995889,[0.26],[0.008333333333333333],[1],[0],[0],[0.9619847000576556],['target'],P4,001,2024-10-10_19h13.35.410,visual search task,2024.1.5,None,2024-10-10 19h13.54.150253 +0530,
83,0,83,0,98.02483850019053,,97.99565710034221,5,98.02483850019053,98.02483850019053,0.019916499964892864,,99.00800119992346,[0.18166666666666667],[0.03],[1],[0],[0],[0.993108700029552],['target'],P4,001,2024-10-10_19h13.35.410,visual search task,2024.1.5,None,2024-10-10 19h13.54.150253 +0530,
84,0,84,0,99.06256850017235,,99.01252510026097,10,99.06256850017235,99.06256850017235,0.03629329986870289,100.10556600010023,100.40753650013357,[-0.30833333333333335],[-0.4033333333333333],[1],[0],[0],[1.3592418995685875],['target'],P4,001,2024-10-10_19h13.35.410,visual search task,2024.1.5,None,2024-10-10 19h13.54.150253 +0530,
85,0,85,0,100.43948940001428,,100.41209630016237,5,100.43948940001428,100.43948940001428,0.017989899963140488,101.44032930023968,101.6431132000871,[-0.31166666666666665],[0.275],[1],[0],[0],[1.2135330000892282],['target'],P4,001,2024-10-10_19h13.35.410,visual search task,2024.1.5,None,2024-10-10 19h13.54.150253 +0530,
86,0,86,0,101.69959110021591,,101.6479726000689,10,101.69959110021591,101.69959110021591,0.03685220004990697,102.72264209995046,102.99253830034286,[0.21833333333333332],[0.32666666666666666],[1],[0],[0],[1.3080735001713037],['target'],P4,001,2024-10-10_19h13.35.410,visual search task,2024.1.5,None,2024-10-10 19h13.54.150253 +0530,
87,0,87,0,103.08354820031673,,103.00073850015178,10,103.08354820031673,103.08354820031673,0.06032569985836744,104.12255319999531,104.42409340012819,[-0.24],[0.4533333333333333],[1],[0],[0],[1.3640784998424351],['target'],P4,001,2024-10-10_19h13.35.410,visual search task,2024.1.5,None,2024-10-10 19h13.54.150253 +0530,
88,0,88,0,104.49039940023795,,104.43201440013945,10,104.49039940023795,104.49039940023795,0.04555860022082925,105.52252870006487,105.77528030006215,[0.37666666666666665],[-0.29],[1],[0],[0],[1.298990999814123],['target'],P4,001,2024-10-10_19h13.35.410,visual search task,2024.1.5,None,2024-10-10 19h13.54.150253 +0530,
89,0,89,0,105.8063550000079,,105.77979389997199,5,105.8063550000079,105.8063550000079,0.017198100220412016,106.80739870015532,107.20923579996452,[-0.44],[-0.32666666666666666],[1],[0],[0],[1.4127672999165952],['target'],P4,001,2024-10-10_19h13.35.410,visual search task,2024.1.5,None,2024-10-10 19h13.54.150253 +0530,
90,0,90,0,107.24124490004033,,107.2138135000132,5,107.24124490004033,107.24124490004033,0.018272799905389547,108.25835630018264,108.31038950011134,[0.39],[-0.05],[1],[0],[0],[1.0785694001242518],['target'],P4,001,2024-10-10_19h13.35.410,visual search task,2024.1.5,None,2024-10-10 19h13.54.150253 +0530,
91,0,91,0,108.37433660030365,,108.31877480028197,5,108.37433660030365,108.37433660030365,0.03226450039073825,,109.22605130029842,[0.15],[-0.12],[1],[0],[0],[0.8760257000103593],['target'],P4,001,2024-10-10_19h13.35.410,visual search task,2024.1.5,None,2024-10-10 19h13.54.150253 +0530,
92,0,92,0,109.26989490026608,,109.23393480014056,5,109.26989490026608,109.26989490026608,0.027360800188034773,110.27419440029189,110.37422490026802,[-0.44666666666666666],[0.09166666666666666],[1],[0],[0],[1.1140476996079087],['target'],P4,001,2024-10-10_19h13.35.410,visual search task,2024.1.5,None,2024-10-10 19h13.54.150253 +0530,
93,0,93,0,110.4447341999039,,110.38206590013579,10,110.4447341999039,110.4447341999039,0.050368200056254864,111.45834959996864,111.54236449999735,[-0.15333333333333332],[-0.385],[1],[0],[0],[1.111113099846989],['target'],P4,001,2024-10-10_19h13.35.410,visual search task,2024.1.5,None,2024-10-10 19h13.54.150253 +0530,
94,0,94,0,111.60790659999475,,111.5469291000627,10,111.60790659999475,111.60790659999475,0.045945999678224325,112.6385511001572,112.94284230004996,[-0.33166666666666667],[-0.03166666666666667],[1],[0],[0],[1.3503565001301467],['target'],P4,001,2024-10-10_19h13.35.410,visual search task,2024.1.5,None,2024-10-10 19h13.54.150253 +0530,
95,0,95,0,112.99745110003278,,112.94768110010773,10,112.99745110003278,112.99745110003278,0.035834299866110086,,113.84019660018384,[-0.15],[0.43833333333333335],[1],[0],[0],[0.8571111001074314],['target'],P4,001,2024-10-10_19h13.35.410,visual search task,2024.1.5,None,2024-10-10 19h13.54.150253 +0530,
96,0,96,0,113.87419510027394,,113.8449911000207,5,113.87419510027394,113.87419510027394,0.0199651001021266,114.8734658001922,115.12477120012045,[0.3516666666666667],[-0.19333333333333333],[1],[0],[0],[1.260213099885732],[],P4,001,2024-10-10_19h13.35.410,visual search task,2024.1.5,None,2024-10-10 19h13.54.150253 +0530,
97,0,97,0,115.16270369989797,,115.1326677002944,5,115.16270369989797,115.16270369989797,0.021298800129443407,116.1738368999213,116.39261180022731,[-0.015],[-0.06],[1],[0],[0],[1.2398816999047995],['target'],P4,001,2024-10-10_19h13.35.410,visual search task,2024.1.5,None,2024-10-10 19h13.54.150253 +0530,
98,0,98,0,116.42543070018291,,116.39743930008262,5,116.42543070018291,116.42543070018291,0.018229800276458263,117.44093010015786,117.47747249994427,[0.20666666666666667],[0.43166666666666664],[1],[0],[0],[1.0621433998458087],[],P4,001,2024-10-10_19h13.35.410,visual search task,2024.1.5,None,2024-10-10 19h13.54.150253 +0530,
99,0,99,0,117.54222560022026,,117.48548800032586,10,117.54222560022026,117.54222560022026,0.04274940025061369,118.5560627002269,120.15776009997353,[-0.49333333333333335],[0.375],[1],[0],[0],[2.630703100003302],['target'],P4,001,2024-10-10_19h13.35.410,visual search task,2024.1.5,None,2024-10-10 19h13.54.150253 +0530,
100,0,100,0,120.2116863001138,,120.1623348002322,10,120.2116863001138,120.2116863001138,0.03554360009729862,121.22361510014161,121.47718780022115,[0.11],[-0.3516666666666667],[1],[0],[0],[1.2796093001961708],[],P4,001,2024-10-10_19h13.35.410,visual search task,2024.1.5,None,2024-10-10 19h13.54.150253 +0530,
101,0,101,0,121.54441460035741,,121.48245940031484,10,121.54441460035741,121.54441460035741,0.048604900017380714,122.58901489991695,122.5927067999728,[-0.195],[-0.205],[1],[0],[0],[1.0621356996707618],[],P4,001,2024-10-10_19h13.35.410,visual search task,2024.1.5,None,2024-10-10 19h13.54.150253 +0530,
102,0,102,0,122.66413170006126,,122.60058710025623,10,122.66413170006126,122.66413170006126,0.0497620003297925,123.69038909999654,123.72333159996197,[0.39166666666666666],[0.345],[1],[0],[0],[1.0741377002559602],[],P4,001,2024-10-10_19h13.35.410,visual search task,2024.1.5,None,2024-10-10 19h13.54.150253 +0530,
103,0,103,0,123.78177540004253,,123.7279868000187,10,123.78177540004253,123.78177540004253,0.03813540004193783,,124.72446390008554,[0.23666666666666666],[0.006666666666666667],[1],[0],[0],[0.9588641002774239],['target'],P4,001,2024-10-10_19h13.35.410,visual search task,2024.1.5,None,2024-10-10 19h13.54.150253 +0530,
104,0,104,0,124.75758380023763,,124.72929510008544,5,124.75758380023763,124.75758380023763,0.019379499834030867,125.75760400015861,125.8752912003547,[-0.38166666666666665],[0.3],[1],[0],[0],[1.1271237996406853],['target'],P4,001,2024-10-10_19h13.35.410,visual search task,2024.1.5,None,2024-10-10 19h13.54.150253 +0530,
105,0,105,0,125.90901120007038,,125.87980640027672,5,125.90901120007038,125.90901120007038,0.0206581000238657,126.92396960034966,127.15816970029846,[-0.42333333333333334],[0.10833333333333334],[1],[0],[0],[1.2580254999920726],['target'],P4,001,2024-10-10_19h13.35.410,visual search task,2024.1.5,None,2024-10-10 19h13.54.150253 +0530,
106,0,106,0,127.22334960009903,,127.16600649990141,10,127.22334960009903,127.22334960009903,0.044649799820035696,128.22330940002576,128.4403975000605,[0.23],[-0.011666666666666667],[1],[0],[0],[1.2309006000868976],['target'],P4,001,2024-10-10_19h13.35.410,visual search task,2024.1.5,None,2024-10-10 19h13.54.150253 +0530,
107,0,107,0,128.50545440008864,,128.4452331000939,10,128.50545440008864,128.50545440008864,0.047130499966442585,129.5064644003287,129.70805669995025,[-0.3933333333333333],[0.13333333333333333],[1],[0],[0],[1.216378000099212],['target'],P4,001,2024-10-10_19h13.35.410,visual search task,2024.1.5,None,2024-10-10 19h13.54.150253 +0530,
108,0,108,0,129.7395938001573,,129.7126042000018,5,129.7395938001573,129.7395938001573,0.01831369986757636,130.74078370025381,131.24083429994062,[-0.18833333333333332],[0.3516666666666667],[1],[0],[0],[1.5101606999523938],['target'],P4,001,2024-10-10_19h13.35.410,visual search task,2024.1.5,None,2024-10-10 19h13.54.150253 +0530,
109,0,109,0,131.3065520003438,,131.2486898000352,10,131.3065520003438,131.3065520003438,0.04475930007174611,,132.15754850022495,[-0.38166666666666665],[0.07833333333333334],[1],[0],[0],[0.865164500195533],[],P4,001,2024-10-10_19h13.35.410,visual search task,2024.1.5,None,2024-10-10 19h13.54.150253 +0530,
110,0,110,0,132.1935316999443,,132.16417760029435,5,132.1935316999443,132.1935316999443,0.019624799955636263,133.20728630013764,133.2414112999104,[-0.08666666666666667],[-0.155],[1],[0],[0],[1.0582646001130342],['target'],P4,001,2024-10-10_19h13.35.410,visual search task,2024.1.5,None,2024-10-10 19h13.54.150253 +0530,
111,0,111,0,133.27204179996625,,133.24590640002862,5,133.27204179996625,133.27204179996625,0.017830700147897005,134.27348690014333,134.42696660012007,[-0.2733333333333333],[0.39666666666666667],[1],[0],[0],[1.1636473000980914],['target'],P4,001,2024-10-10_19h13.35.410,visual search task,2024.1.5,None,2024-10-10 19h13.54.150253 +0530,
112,0,112,0,134.48298450000584,,134.431606200058,10,134.48298450000584,134.48298450000584,0.03557670023292303,,135.40744000021368,[-0.2683333333333333],[0.22666666666666666],[1],[0],[0],[0.9405331998132169],['target'],P4,001,2024-10-10_19h13.35.410,visual search task,2024.1.5,None,2024-10-10 19h13.54.150253 +0530,
113,0,113,0,135.49776030005887,,135.41522340010852,10,135.49776030005887,135.49776030005887,0.061087199952453375,136.5389409000054,136.8078474001959,[-0.48833333333333334],[0.15833333333333333],[1],[0],[0],[1.3323552999645472],['target'],P4,001,2024-10-10_19h13.35.410,visual search task,2024.1.5,None,2024-10-10 19h13.54.150253 +0530,
114,0,114,0,136.88927880022675,,136.81612810026854,10,136.88927880022675,136.88927880022675,0.051176199689507484,137.92441250011325,139.6077927001752,[0.49],[0.16166666666666665],[1],[0],[0],[2.742053000256419],['target'],P4,001,2024-10-10_19h13.35.410,visual search task,2024.1.5,None,2024-10-10 19h13.54.150253 +0530,
115,0,115,0,139.64035160001367,,139.61257850006223,5,139.64035160001367,139.64035160001367,0.01876119989901781,140.64018530026078,140.75853110011667,[0.4266666666666667],[0.18833333333333332],[1],[0],[0],[1.1276972000487149],['target'],P4,001,2024-10-10_19h13.35.410,visual search task,2024.1.5,None,2024-10-10 19h13.54.150253 +0530,
116,0,116,0,140.7954469001852,,140.76356900017709,5,140.7954469001852,140.7954469001852,0.02192179998382926,141.82244520029053,141.9259395999834,[0.011666666666666667],[0.29],[1],[0],[0],[1.1408404000103474],['target'],P4,001,2024-10-10_19h13.35.410,visual search task,2024.1.5,None,2024-10-10 19h13.54.150253 +0530,
117,0,117,0,142.0045982003212,,141.93401989992708,10,142.0045982003212,142.0045982003212,0.0563183999620378,143.02357920026407,143.17731090029702,[-0.09],[-0.3433333333333333],[1],[0],[0],[1.1881152000278234],['target'],P4,001,2024-10-10_19h13.35.410,visual search task,2024.1.5,None,2024-10-10 19h13.54.150253 +0530,
118,0,118,0,143.25115479994565,,143.1820792001672,10,143.25115479994565,143.25115479994565,0.05156739987432957,144.27292239991948,144.30812459997833,[0.25166666666666665],[-0.31833333333333336],[1],[0],[0],[1.0748963998630643],['target'],P4,001,2024-10-10_19h13.35.410,visual search task,2024.1.5,None,2024-10-10 19h13.54.150253 +0530,
119,0,119,0,144.36352870007977,,144.31291330000386,10,144.36352870007977,144.36352870007977,0.03541269991546869,,145.20701309992,[-0.3416666666666667],[0.13166666666666665],[1],[0],[0],[0.8589809001423419],[],P4,001,2024-10-10_19h13.35.410,visual search task,2024.1.5,None,2024-10-10 19h13.54.150253 +0530,
120,0,120,0,145.25769519992173,,145.2149056000635,5,145.25769519992173,145.25769519992173,0.030375999864190817,,146.14304680004716,[0.105],[-0.33666666666666667],[1],[0],[0],[0.89889009995386],['target'],P4,001,2024-10-10_19h13.35.410,visual search task,2024.1.5,None,2024-10-10 19h13.54.150253 +0530,
121,0,121,0,146.2162327999249,,146.15082890028134,10,146.2162327999249,146.2162327999249,0.05010819993913174,147.23861390026286,147.3085889001377,[0.18833333333333332],[-0.43],[1],[0],[0],[1.1087921001017094],['target'],P4,001,2024-10-10_19h13.35.410,visual search task,2024.1.5,None,2024-10-10 19h13.54.150253 +0530,
122,0,122,0,147.3794375001453,,147.3164896001108,10,147.3794375001453,147.3794375001453,0.0498263998888433,,148.34127769991755,[0.23],[-0.095],[1],[0],[0],[0.976247999817133],['target'],P4,001,2024-10-10_19h13.35.410,visual search task,2024.1.5,None,2024-10-10 19h13.54.150253 +0530,
123,0,123,0,148.37338040024042,,148.34583520004526,5,148.37338040024042,148.37338040024042,0.018379200249910355,149.37426260020584,149.55866840016097,[-0.17666666666666667],[0.08833333333333333],[1],[0],[0],[1.194977100007236],['target'],P4,001,2024-10-10_19h13.35.410,visual search task,2024.1.5,None,2024-10-10 19h13.54.150253 +0530,
124,0,124,0,149.61254259990528,,149.5632382002659,10,149.61254259990528,149.61254259990528,0.03592310007661581,150.62313720025122,150.9741935003549,[-0.495],[-0.35333333333333333],[1],[0],[0],[1.375584399793297],['target'],P4,001,2024-10-10_19h13.35.410,visual search task,2024.1.5,None,2024-10-10 19h13.54.150253 +0530,
125,0,125,0,151.00658430019394,,150.97875870019197,5,151.00658430019394,151.00658430019394,0.019045899622142315,152.00761310011148,152.52637010021135,[-0.37333333333333335],[-0.4666666666666667],[1],[0],[0],[1.5290785999968648],['target'],P4,001,2024-10-10_19h13.35.410,visual search task,2024.1.5,None,2024-10-10 19h13.54.150253 +0530,
126,0,126,0,152.58325750008225,,152.53088480001315,10,152.58325750008225,152.58325750008225,0.037125700153410435,153.58985950006172,153.87374330032617,[-0.2833333333333333],[-0.375],[1],[0],[0],[1.3061310001648962],['target'],P4,001,2024-10-10_19h13.35.410,visual search task,2024.1.5,None,2024-10-10 19h13.54.150253 +0530,
127,0,127,0,153.93478720029816,,153.88173780031502,10,153.93478720029816,153.93478720029816,0.03968589985743165,154.9406221001409,155.16120740026236,[0.11],[-0.44],[1],[0],[0],[1.2410568003542721],[],P4,001,2024-10-10_19h13.35.410,visual search task,2024.1.5,None,2024-10-10 19h13.54.150253 +0530,
128,0,128,0,155.1950366999954,,155.1658405000344,5,155.1950366999954,155.1950366999954,0.018895000219345093,,156.16121770022437,[-0.23],[-0.29333333333333333],[1],[0],[0],[0.9767102999612689],[],P4,001,2024-10-10_19h13.35.410,visual search task,2024.1.5,None,2024-10-10 19h13.54.150253 +0530,
129,0,129,0,156.2313618999906,,156.1693176003173,10,156.2313618999906,156.2313618999906,0.04834030009806156,157.23963050032035,157.52349700033665,[0.4116666666666667],[-0.49166666666666664],[1],[0],[0],[1.307087799999863],['target'],P4,001,2024-10-10_19h13.35.410,visual search task,2024.1.5,None,2024-10-10 19h13.54.150253 +0530,
130,0,130,0,157.5568421999924,,157.52829489996657,5,157.5568421999924,157.5568421999924,0.019939300138503313,158.55756610026583,158.5758227999322,[-0.315],[0.195],[1],[0],[0],[1.0280562001280487],['target'],P4,001,2024-10-10_19h13.35.410,visual search task,2024.1.5,None,2024-10-10 19h13.54.150253 +0530,
131,0,131,0,158.63398410007358,,158.58037300035357,10,158.63398410007358,158.63398410007358,0.038845499977469444,159.65621830010787,159.69246620032936,[0.14666666666666667],[-0.22],[1],[0],[0],[1.073738600127399],['target'],P4,001,2024-10-10_19h13.35.410,visual search task,2024.1.5,None,2024-10-10 19h13.54.150253 +0530,
132,0,132,0,159.724921700079,,159.69697350030765,5,159.724921700079,159.724921700079,0.019309299997985363,160.73985970020294,161.29159740032628,[0.455],[-0.21833333333333332],[1],[0],[0],[1.5757426000200212],['target'],P4,001,2024-10-10_19h13.35.410,visual search task,2024.1.5,None,2024-10-10 19h13.54.150253 +0530,
133,0,133,0,161.3269593999721,,161.2965584001504,5,161.3269593999721,161.3269593999721,0.02165690017864108,,162.21148180030286,[-0.04833333333333333],[-0.27],[1],[0],[0],[0.893569199834019],['target'],P4,001,2024-10-10_19h13.35.410,visual search task,2024.1.5,None,2024-10-10 19h13.54.150253 +0530,
134,0,134,0,162.29682910023257,,162.21947510028258,10,162.29682910023257,162.29682910023257,0.05674940021708608,163.32214030018076,163.32385340007022,[-0.17666666666666667],[0.23833333333333334],[1],[0],[0],[1.0486898999661207],[],P4,001,2024-10-10_19h13.35.410,visual search task,2024.1.5,None,2024-10-10 19h13.54.150253 +0530,
135,0,135,0,163.3994124000892,,163.3316779001616,10,163.3994124000892,163.3994124000892,0.05403420003131032,,164.35735240019858,[-0.05],[-0.26166666666666666],[1],[0],[0],[0.9727239003404975],[],P4,001,2024-10-10_19h13.35.410,visual search task,2024.1.5,None,2024-10-10 19h13.54.150253 +0530,
136,0,136,0,164.4397738003172,,164.365814300254,10,164.4397738003172,164.4397738003172,0.06189660029485822,165.45822340017185,165.7243018001318,[0.27],[-0.17333333333333334],[1],[0],[0],[1.297862300183624],['target'],P4,001,2024-10-10_19h13.35.410,visual search task,2024.1.5,None,2024-10-10 19h13.54.150253 +0530,
137,0,137,0,165.79064440028742,,165.7320970003493,5,165.79064440028742,165.79064440028742,0.029517999850213528,,166.7741848002188,[-0.018333333333333333],[-0.30666666666666664],[1],[0],[0],[1.0135009000077844],['target'],P4,001,2024-10-10_19h13.35.410,visual search task,2024.1.5,None,2024-10-10 19h13.54.150253 +0530,
138,0,138,0,166.86106589995325,,166.78223789995536,10,166.86106589995325,166.86106589995325,0.06016420014202595,167.89061920018867,167.8922168002464,[-0.4033333333333333],[0.25166666666666665],[1],[0],[0],[1.0507594998925924],['target'],P4,001,2024-10-10_19h13.35.410,visual search task,2024.1.5,None,2024-10-10 19h13.54.150253 +0530,
139,0,139,0,167.94750329991803,,167.89709720015526,10,167.94750329991803,167.94750329991803,0.03576080035418272,168.98882080009207,169.2241267003119,[0.46166666666666667],[0.36333333333333334],[1],[0],[0],[1.2914931997656822],['target'],P4,001,2024-10-10_19h13.35.410,visual search task,2024.1.5,None,2024-10-10 19h13.54.150253 +0530,
140,0,140,0,169.31773940008134,,169.23211110010743,10,169.31773940008134,169.31773940008134,0.06366549991071224,170.3233857001178,170.52451050002128,[0.18833333333333332],[0.15666666666666668],[1],[0],[0],[1.2296871999278665],[],P4,001,2024-10-10_19h13.35.410,visual search task,2024.1.5,None,2024-10-10 19h13.54.150253 +0530,
141,0,141,0,170.5797093999572,,170.53240759996697,5,170.5797093999572,170.5797093999572,0.03256559977307916,171.59038279997185,171.92568399989977,[0.07333333333333333],[-0.35833333333333334],[1],[0],[0],[1.361914400011301],['target'],P4,001,2024-10-10_19h13.35.410,visual search task,2024.1.5,None,2024-10-10 19h13.54.150253 +0530,
142,0,142,0,171.98863109992817,,171.93071469990537,10,171.98863109992817,171.98863109992817,0.04222800023853779,172.98991330014542,172.99126640008762,[-0.40166666666666667],[-0.33166666666666667],[1],[0],[0],[1.0190126998350024],['target'],P4,001,2024-10-10_19h13.35.410,visual search task,2024.1.5,None,2024-10-10 19h13.54.150253 +0530,
143,0,143,0,173.04627700010315,,172.9962245002389,10,173.04627700010315,173.04627700010315,0.03649070020765066,174.07237910013646,174.07424250012264,[-0.21166666666666667],[0.34833333333333333],[1],[0],[0],[1.0418670997023582],[],P4,001,2024-10-10_19h13.35.410,visual search task,2024.1.5,None,2024-10-10 19h13.54.150253 +0530,
144,0,144,0,174.12286370014772,,174.08235560031608,5,174.12286370014772,174.12286370014772,0.031535400077700615,175.12369489995763,175.22451659990475,[0.12833333333333333],[-0.225],[1],[0],[0],[1.1117479000240564],['target'],P4,001,2024-10-10_19h13.35.410,visual search task,2024.1.5,None,2024-10-10 19h13.54.150253 +0530,
145,0,145,0,175.25788820022717,,175.2290440001525,5,175.25788820022717,175.25788820022717,0.018750099930912256,176.2563339001499,176.52393390005454,[0.3616666666666667],[-0.37666666666666665],[1],[0],[0],[1.2764795999974012],['target'],P4,001,2024-10-10_19h13.35.410,visual search task,2024.1.5,None,2024-10-10 19h13.54.150253 +0530,
146,0,146,0,176.6129191000946,,176.5317458002828,10,176.6129191000946,176.6129191000946,0.058736300095915794,177.62346780020744,177.69077760027722,[-0.25],[-0.21166666666666667],[1],[0],[0],[1.1014116001315415],['target'],P4,001,2024-10-10_19h13.35.410,visual search task,2024.1.5,None,2024-10-10 19h13.54.150253 +0530,
147,0,147,0,177.74161010002717,,177.6956913000904,10,177.74161010002717,177.74161010002717,0.03237799974158406,178.78890100028366,178.9595389002934,[0.38166666666666665],[0.3283333333333333],[1],[0],[0],[1.231761900242418],['target'],P4,001,2024-10-10_19h13.35.410,visual search task,2024.1.5,None,2024-10-10 19h13.54.150253 +0530,
148,0,148,0,179.03098080027848,,178.96765060024336,10,179.03098080027848,179.03098080027848,0.0498092002235353,180.072251399979,181.0742190000601,[-0.23666666666666666],[0.31666666666666665],[1],[0],[0],[2.0577745996415615],['target'],P4,001,2024-10-10_19h13.35.410,visual search task,2024.1.5,None,2024-10-10 19h13.54.150253 +0530,
149,0,149,0,181.1300194999203,,181.08209560019895,5,181.1300194999203,181.1300194999203,0.03361699962988496,182.14080550009385,182.17713820002973,[-0.105],[-0.15],[1],[0],[0],[1.0624425997957587],['target'],P4,001,2024-10-10_19h13.35.410,visual search task,2024.1.5,None,2024-10-10 19h13.54.150253 +0530,
150,0,150,0,182.24597680009902,,182.18495270004496,10,182.24597680009902,182.24597680009902,0.04652199987322092,183.27308560023084,183.875131000299,[0.43],[0.22666666666666666],[1],[0],[0],[1.6446596002206206],['target'],P4,001,2024-10-10_19h13.35.410,visual search task,2024.1.5,None,2024-10-10 19h13.54.150253 +0530,
151,0,151,0,183.93075630022213,,183.8837709003128,5,183.93075630022213,183.93075630022213,0.03505530022084713,,184.90901970025152,[-0.35833333333333334],[0.05333333333333334],[1],[0],[0],[0.9916463997215033],['target'],P4,001,2024-10-10_19h13.35.410,visual search task,2024.1.5,None,2024-10-10 19h13.54.150253 +0530,
152,0,152,0,184.99017010023817,,184.91764250025153,10,184.99017010023817,184.99017010023817,0.05915270000696182,185.99062910024077,186.2740891999565,[0.2633333333333333],[0.09],[1],[0],[0],[1.2988641997799277],['target'],P4,001,2024-10-10_19h13.35.410,visual search task,2024.1.5,None,2024-10-10 19h13.54.150253 +0530,
153,0,153,0,186.30808740016073,,186.27901139995083,5,186.30808740016073,186.30808740016073,0.019880599807947874,187.32417500019073,187.45745220035315,[0.28],[-0.006666666666666667],[1],[0],[0],[1.1588266999460757],[],P4,001,2024-10-10_19h13.35.410,visual search task,2024.1.5,None,2024-10-10 19h13.54.150253 +0530,
154,0,154,0,187.51123670022935,,187.4653401002288,5,187.51123670022935,187.51123670022935,0.0323146996088326,188.5235168999061,189.09167749993503,[-0.14],[0.16166666666666665],[1],[0],[0],[1.5952171999961138],['target'],P4,001,2024-10-10_19h13.35.410,visual search task,2024.1.5,None,2024-10-10 19h13.54.150253 +0530,
155,0,155,0,189.12474660016596,,189.096465700306,5,189.12474660016596,189.12474660016596,0.01934560015797615,190.13889160007238,190.42578450031579,[0.485],[-0.13],[1],[0],[0],[1.310331099666655],['target'],P4,001,2024-10-10_19h13.35.410,visual search task,2024.1.5,None,2024-10-10 19h13.54.150253 +0530,
156,0,156,0,190.47315220022574,,190.43376930011436,5,190.47315220022574,190.47315220022574,0.030350300017744303,191.4733135001734,191.95891509996727,[-0.03666666666666667],[-0.48833333333333334],[1],[0],[0],[1.4960191999562085],['target'],P4,001,2024-10-10_19h13.35.410,visual search task,2024.1.5,None,2024-10-10 19h13.54.150253 +0530,
157,0,157,0,192.01622510002926,,191.96350779989734,10,192.01622510002926,192.01622510002926,0.039069900289177895,193.03907900024205,193.44077310012653,[0.13166666666666665],[-0.12666666666666668],[1],[0],[0],[1.4384562000632286],['target'],P4,001,2024-10-10_19h13.35.410,visual search task,2024.1.5,None,2024-10-10 19h13.54.150253 +0530,
158,0,158,0,193.51734100002795,,193.44919050019234,10,193.51734100002795,193.51734100002795,0.05461430037394166,,194.4911873000674,[0.051666666666666666],[0.08833333333333333],[1],[0],[0],[0.9889214998111129],['target'],P4,001,2024-10-10_19h13.35.410,visual search task,2024.1.5,None,2024-10-10 19h13.54.150253 +0530,
159,0,159,0,194.522749400232,,194.4957256000489,5,194.522749400232,194.522749400232,0.01847560005262494,,195.34319719998166,[0.30833333333333335],[0.12833333333333333],[1],[0],[0],[0.8295074999332428],['target'],P4,001,2024-10-10_19h13.35.410,visual search task,2024.1.5,None,2024-10-10 19h13.54.150253 +0530,
160,0,160,0,195.39609840000048,,195.34771670028567,10,195.39609840000048,195.39609840000048,0.03458350012078881,196.4220344000496,196.62377970013767,[-0.27166666666666667],[-0.015],[1],[0],[0],[1.2417976004071534],['target'],P4,001,2024-10-10_19h13.35.410,visual search task,2024.1.5,None,2024-10-10 19h13.54.150253 +0530,
161,0,161,0,196.6751120002009,,196.63170249992982,5,196.6751120002009,196.6751120002009,0.03000580007210374,,197.5423380001448,[0.08833333333333333],[-0.4066666666666667],[1],[0],[0],[0.8817072999663651],[],P4,001,2024-10-10_19h13.35.410,visual search task,2024.1.5,None,2024-10-10 19h13.54.150253 +0530,
162,0,162,0,197.58710499992594,,197.5501638003625,5,197.58710499992594,197.58710499992594,0.028190100099891424,,198.45763380033895,[-0.31666666666666665],[-0.39666666666666667],[1],[0],[0],[0.8805093998089433],['target'],P4,001,2024-10-10_19h13.35.410,visual search task,2024.1.5,None,2024-10-10 19h13.54.150253 +0530,
163,0,163,0,198.4910901002586,,198.46222200011835,5,198.4910901002586,198.4910901002586,0.019721499644219875,,199.32386860018596,[-0.19833333333333333],[-0.29833333333333334],[1],[0],[0],[0.8424988999031484],['target'],P4,001,2024-10-10_19h13.35.410,visual search task,2024.1.5,None,2024-10-10 19h13.54.150253 +0530,
164,0,164,0,199.37801250023767,,199.32887810003012,10,199.37801250023767,199.37801250023767,0.034366900101304054,200.40564760006964,200.54044619994238,[0.39],[-0.021666666666666667],[1],[0],[0],[1.1775626000016928],[],P4,001,2024-10-10_19h13.35.410,visual search task,2024.1.5,None,2024-10-10 19h13.54.150253 +0530,
165,0,165,0,200.63564120000228,,200.5484037999995,10,200.63564120000228,200.63564120000228,0.0642958995886147,,201.60772760026157,[0.018333333333333333],[-0.2866666666666667],[1],[0],[0],[0.996078799944371],['target'],P4,001,2024-10-10_19h13.35.410,visual search task,2024.1.5,None,2024-10-10 19h13.54.150253 +0530,
166,0,166,0,201.7012098999694,,201.61611030017957,10,201.7012098999694,201.7012098999694,0.06244080001488328,,202.5439261002466,[-0.10666666666666667],[-0.35],[1],[0],[0],[0.8665260002017021],[],P4,001,2024-10-10_19h13.35.410,visual search task,2024.1.5,None,2024-10-10 19h13.54.150253 +0530,
167,0,167,0,202.59321770025417,,202.55210100021213,5,202.59321770025417,202.59321770025417,0.031241099815815687,,203.4272704999894,[-0.055],[0.09],[1],[0],[0],[0.8448064001277089],['target'],P4,001,2024-10-10_19h13.35.410,visual search task,2024.1.5,None,2024-10-10 19h13.54.150253 +0530,
168,0,168,0,203.49305000016466,,203.43522120034322,10,203.49305000016466,203.49305000016466,0.04404730023816228,204.52158060017973,204.49085910012946,[-0.11],[0.3016666666666667],[1],[0],[0],[1.012915899977088],[],P4,001,2024-10-10_19h13.35.410,visual search task,2024.1.5,None,2024-10-10 19h13.54.150253 +0530,
169,0,169,0,204.52158060017973,,204.49544050032273,5,204.52158060017973,204.52158060017973,0.017648999579250813,205.5390898999758,205.69121400034055,[0.29],[0.27666666666666667],[1],[0],[0],[1.1784573001787066],['target'],P4,001,2024-10-10_19h13.35.410,visual search task,2024.1.5,None,2024-10-10 19h13.54.150253 +0530,
170,0,170,0,205.76527360035107,,205.69946910021827,10,205.76527360035107,205.76527360035107,0.050872799940407276,206.80540690012276,207.17437250027433,[0.31166666666666665],[0.0],[1],[0],[0],[1.425093799829483],[],P4,001,2024-10-10_19h13.35.410,visual search task,2024.1.5,None,2024-10-10 19h13.54.150253 +0530,
171,0,171,0,207.23968750005588,,207.18219060031697,10,207.23968750005588,207.23968750005588,0.043608800042420626,208.24115560017526,208.2427457999438,[-0.31666666666666665],[0.085],[1],[0],[0],[1.0181199996732175],[],P4,001,2024-10-10_19h13.35.410,visual search task,2024.1.5,None,2024-10-10 19h13.54.150253 +0530,
172,0,172,0,208.27661240007728,,208.24737900029868,5,208.27661240007728,208.27661240007728,0.020775699988007545,209.28989790007472,209.52586450008675,[0.06],[-0.365],[1],[0],[0],[1.2581802997738123],[],P4,001,2024-10-10_19h13.35.410,visual search task,2024.1.5,None,2024-10-10 19h13.54.150253 +0530,
173,0,173,0,209.58080499991775,,209.5303758000955,10,209.58080499991775,209.58080499991775,0.03639840008690953,210.59105950035155,211.0107315001078,[-0.07833333333333334],[-0.14666666666666667],[1],[0],[0],[1.4443484004586935],['target'],P4,001,2024-10-10_19h13.35.410,visual search task,2024.1.5,None,2024-10-10 19h13.54.150253 +0530,
174,0,174,0,211.05829540034756,,211.01889650011435,5,211.05829540034756,211.05829540034756,0.030336900148540735,212.05633810022846,212.35849600005895,[-0.15833333333333333],[-0.08666666666666667],[1],[0],[0],[1.3105239998549223],['target'],P4,001,2024-10-10_19h13.35.410,visual search task,2024.1.5,None,2024-10-10 19h13.54.150253 +0530,
175,0,175,0,212.38863660022616,,212.36300900019705,5,212.38863660022616,212.38863660022616,0.017100400291383266,213.40767890028656,213.97736730007455,[-0.32166666666666666],[0.25],[1],[0],[0],[1.5976168997585773],[],P4,001,2024-10-10_19h13.35.410,visual search task,2024.1.5,None,2024-10-10 19h13.54.150253 +0530,
176,0,176,0,214.04680630005896,,213.98551920009777,10,214.04680630005896,214.04680630005896,0.047431299928575754,215.05670950002968,215.6402385002002,[0.3566666666666667],[-0.27166666666666667],[1],[0],[0],[1.6084762997925282],['target'],P4,001,2024-10-10_19h13.35.410,visual search task,2024.1.5,None,2024-10-10 19h13.54.150253 +0530,
177,0,177,0,215.67869580024853,,215.6448319000192,5,215.67869580024853,215.67869580024853,0.019289399962872267,,216.57732150005177,[0.30833333333333335],[-0.056666666666666664],[1],[0],[0],[0.9136363998986781],['target'],P4,001,2024-10-10_19h13.35.410,visual search task,2024.1.5,None,2024-10-10 19h13.54.150253 +0530,
178,0,178,0,216.6362399002537,,216.58210260001943,10,216.6362399002537,216.6362399002537,0.0400823000818491,217.67251840000972,217.97619030019268,[0.21666666666666667],[0.08833333333333333],[1],[0],[0],[1.3543368997052312],['target'],P4,001,2024-10-10_19h13.35.410,visual search task,2024.1.5,None,2024-10-10 19h13.54.150253 +0530,
179,0,179,0,218.04171109991148,,217.9844150999561,10,218.04171109991148,218.04171109991148,0.04408810008317232,,218.85662630014122,[-0.10166666666666667],[-0.22333333333333333],[1],[0],[0],[0.829256100114435],['target'],P4,001,2024-10-10_19h13.35.410,visual search task,2024.1.5,None,2024-10-10 19h13.54.150253 +0530,
180,0,180,0,218.88897790014744,,218.8615792999044,5,218.88897790014744,218.88897790014744,0.018331400118768215,219.88985959999263,219.99260629992932,[0.17666666666666667],[0.3333333333333333],[1],[0],[0],[1.1130262003280222],['target'],P4,001,2024-10-10_19h13.35.410,visual search task,2024.1.5,None,2024-10-10 19h13.54.150253 +0530,
181,0,181,0,220.04344950011,,220.0005908003077,5,220.04344950011,220.04344950011,0.02959359996020794,221.05647339997813,221.3244942999445,[-0.01],[-0.4483333333333333],[1],[0],[0],[1.2955578998662531],[],P4,001,2024-10-10_19h13.35.410,visual search task,2024.1.5,None,2024-10-10 19h13.54.150253 +0530,
182,0,182,0,221.38415470020846,,221.3293734001927,10,221.38415470020846,221.38415470020846,0.04040100006386638,222.42208580020815,223.15759880002588,[0.4866666666666667],[-0.08],[1],[0],[0],[1.7880498999729753],['target'],P4,001,2024-10-10_19h13.35.410,visual search task,2024.1.5,None,2024-10-10 19h13.54.150253 +0530,
183,0,183,0,223.2104494003579,,223.1654809000902,5,223.2104494003579,223.2104494003579,0.03126160008832812,224.22328290017322,224.35893180035055,[-0.06166666666666667],[-0.43333333333333335],[1],[0],[0],[1.163316400256008],['target'],P4,001,2024-10-10_19h13.35.410,visual search task,2024.1.5,None,2024-10-10 19h13.54.150253 +0530,
184,0,184,0,224.3919143001549,,224.36347010033205,5,224.3919143001549,224.3919143001549,0.018624200019985437,225.40650290017948,225.45840790029615,[0.285],[-0.3233333333333333],[1],[0],[0],[1.0768293999135494],[],P4,001,2024-10-10_19h13.35.410,visual search task,2024.1.5,None,2024-10-10 19h13.54.150253 +0530,
185,0,185,0,225.48913250025362,,225.4629430002533,5,225.48913250025362,225.48913250025362,0.01733680022880435,,226.29165320005268,[0.12333333333333334],[-0.285],[1],[0],[0],[0.8118610000237823],['target'],P4,001,2024-10-10_19h13.35.410,visual search task,2024.1.5,None,2024-10-10 19h13.54.150253 +0530,
186,0,186,0,226.32400090014562,,226.29627310018986,5,226.32400090014562,226.32400090014562,0.019041799940168858,227.3229928999208,227.5762432999909,[0.45166666666666666],[0.3433333333333333],[1],[0],[0],[1.2615004000253975],['target'],P4,001,2024-10-10_19h13.35.410,visual search task,2024.1.5,None,2024-10-10 19h13.54.150253 +0530,
187,0,187,0,227.62919340003282,,227.58098229998723,10,227.62919340003282,227.62919340003282,0.033703300170600414,228.639649100136,228.92828590003774,[0.11],[0.08666666666666667],[1],[0],[0],[1.314317399635911],['target'],P4,001,2024-10-10_19h13.35.410,visual search task,2024.1.5,None,2024-10-10 19h13.54.150253 +0530,
188,0,188,0,228.96225250000134,,228.93284260015935,5,228.96225250000134,228.96225250000134,0.01910880021750927,,229.9415237000212,[0.20333333333333334],[-0.205],[1],[0],[0],[0.9901085002347827],['target'],P4,001,2024-10-10_19h13.35.410,visual search task,2024.1.5,None,2024-10-10 19h13.54.150253 +0530,
189,0,189,0,229.9976095003076,,229.9460745002143,10,229.9976095003076,229.9976095003076,0.03724650014191866,231.00629079993814,231.14088480034843,[0.075],[0.34833333333333333],[1],[0],[0],[1.158126000314951],['target'],P4,001,2024-10-10_19h13.35.410,visual search task,2024.1.5,None,2024-10-10 19h13.54.150253 +0530,
190,0,190,0,231.195533500053,,231.14556630002335,10,231.195533500053,231.195533500053,0.036339899990707636,,232.04085349990055,[0.24333333333333335],[-0.09833333333333333],[1],[0],[0],[0.8595326999202371],['target'],P4,001,2024-10-10_19h13.35.410,visual search task,2024.1.5,None,2024-10-10 19h13.54.150253 +0530,
191,0,191,0,232.09398530004546,,232.0455219000578,10,232.09398530004546,232.09398530004546,0.034799699671566486,233.1065055001527,233.1244521001354,[0.11],[0.35833333333333334],[1],[0],[0],[1.0447124000638723],['target'],P4,001,2024-10-10_19h13.35.410,visual search task,2024.1.5,None,2024-10-10 19h13.54.150253 +0530,
192,0,192,0,233.17989990022033,,233.12905000010505,10,233.17989990022033,233.17989990022033,0.037218600045889616,,234.04295170027763,[0.315],[-0.013333333333333334],[1],[0],[0],[0.8771207998506725],[],P4,001,2024-10-10_19h13.35.410,visual search task,2024.1.5,None,2024-10-10 19h13.54.150253 +0530,
193,0,193,0,234.09684580005705,,234.04745940025896,10,234.09684580005705,234.09684580005705,0.03429219964891672,235.138846100308,235.47566349990666,[0.4],[0.365],[1],[0],[0],[1.3939010999165475],['target'],P4,001,2024-10-10_19h13.35.410,visual search task,2024.1.5,None,2024-10-10 19h13.54.150253 +0530,
194,0,194,0,235.53720139991492,,235.4842245001346,10,235.53720139991492,235.53720139991492,0.03882339969277382,236.5400775000453,236.8067026999779,[0.28],[0.105],[1],[0],[0],[1.2848658002912998],['target'],P4,001,2024-10-10_19h13.35.410,visual search task,2024.1.5,None,2024-10-10 19h13.54.150253 +0530,
195,0,195,0,236.85423579998314,,236.8112186002545,5,236.85423579998314,236.85423579998314,0.028039699885994196,237.87394150020555,237.95785470027477,[0.3466666666666667],[0.14833333333333334],[1],[0],[0],[1.1188982999883592],['target'],P4,001,2024-10-10_19h13.35.410,visual search task,2024.1.5,None,2024-10-10 19h13.54.150253 +0530,
196,0,196,0,238.00040830019861,,237.96585320029408,5,238.00040830019861,238.00040830019861,0.025271799881011248,239.0487335002981,238.99494539992884,[0.41333333333333333],[0.03666666666666667],[1],[0],[0],[1.0049818996340036],['target'],P4,001,2024-10-10_19h13.35.410,visual search task,2024.1.5,None,2024-10-10 19h13.54.150253 +0530,
197,0,197,0,239.0487335002981,,239.00314080016688,5,239.0487335002981,239.0487335002981,0.03135850001126528,240.0570058003068,240.07493510004133,[-0.03],[0.44],[1],[0],[0],[1.0416987999342382],[],P4,001,2024-10-10_19h13.35.410,visual search task,2024.1.5,None,2024-10-10 19h13.54.150253 +0530,
198,0,198,0,240.10847289999947,,240.07952499995008,5,240.10847289999947,240.10847289999947,0.019381700083613396,241.1229254002683,241.19116070028394,[0.23333333333333334],[0.05333333333333334],[1],[0],[0],[1.0928070000372827],[],P4,001,2024-10-10_19h13.35.410,visual search task,2024.1.5,None,2024-10-10 19h13.54.150253 +0530,
199,0,199,0,241.22413900028914,,241.1960130999796,5,241.22413900028914,241.22413900028914,0.01929780002683401,,242.15716980025172,[0.44166666666666665],[-0.3416666666666667],[1],[0],[0],[0.9421558999456465],[],P4,001,2024-10-10_19h13.35.410,visual search task,2024.1.5,None,2024-10-10 19h13.54.150253 +0530,
