seq,target,trials.thisRepN,trials.thisTrialN,trials.thisN,trials.thisIndex,trials_2.thisRepN,trials_2.thisTrialN,trials_2.thisN,trials_2.thisIndex,thisRow.t,notes,trial.started,sq1.started,sq2.started,sq3.started,sq4.started,key_resp.started,trial.stopped,key_resp.keys,key_resp.rt,key_resp.duration,participant,session,date,expName,psychopyVersion,frameRate,expStart,
patterned,1,0,0,0,2,0,0,0,0,0.037636399967595935,,0.02385090000461787,0.037636399967595935,0.037636399967595935,0.037636399967595935,0.037636399967595935,0.037636399967595935,1.1453119999496266,['1'],[1.0893017000053078],[None],413167,001,2024-12-03_02h30.02.008,solo_project,2024.1.5,None,2024-12-03 02h30.09.442791 +0530,
patterned,3,0,0,0,2,0,1,1,1,1.1549778999760747,,1.1468598999781534,1.1549778999760747,1.1549778999760747,1.1549778999760747,1.1549778999760747,1.1549778999760747,3.0885948999784887,['4'],[1.9173155999742448],[None],413167,001,2024-12-03_02h30.02.008,solo_project,2024.1.5,None,2024-12-03 02h30.09.442791 +0530,
patterned,2,0,0,0,2,0,2,2,2,3.104776300024241,,3.0889814000111073,3.104776300024241,3.104776300024241,3.104776300024241,3.104776300024241,3.104776300024241,4.055566099938005,['2'],[0.9339654999785125],[None],413167,001,2024-12-03_02h30.02.008,solo_project,2024.1.5,None,2024-12-03 02h30.09.442791 +0530,
patterned,4,0,0,0,2,0,3,3,3,4.071481599938124,,4.0560070999199525,4.071481599938124,4.071481599938124,4.071481599938124,4.071481599938124,4.071481599938124,4.472124999971129,['3'],[0.38543340004980564],[None],413167,001,2024-12-03_02h30.02.008,solo_project,2024.1.5,None,2024-12-03 02h30.09.442791 +0530,
patterned,1,0,0,0,2,1,0,4,0,4.487951699993573,,4.472499699913897,4.487951699993573,4.487951699993573,4.487951699993573,4.487951699993573,4.487951699993573,5.10662939993199,['1'],[0.6160926000447944],[None],413167,001,2024-12-03_02h30.02.008,solo_project,2024.1.5,None,2024-12-03 02h30.09.442791 +0530,
patterned,3,0,0,0,2,1,1,5,1,5.1215834999457,,5.107131999917328,5.1215834999457,5.1215834999457,5.1215834999457,5.1215834999457,5.1215834999457,6.356421199976467,['4'],[1.2245023000286892],[None],413167,001,2024-12-03_02h30.02.008,solo_project,2024.1.5,None,2024-12-03 02h30.09.442791 +0530,
patterned,2,0,0,0,2,1,2,6,2,6.371693399967626,,6.356879799976014,6.371693399967626,6.371693399967626,6.371693399967626,6.371693399967626,6.371693399967626,7.6058445000089705,['2'],[1.2177613999228925],[None],413167,001,2024-12-03_02h30.02.008,solo_project,2024.1.5,None,2024-12-03 02h30.09.442791 +0530,
patterned,4,0,0,0,2,1,3,7,3,7.621427699923515,,7.606221799971536,7.621427699923515,7.621427699923515,7.621427699923515,7.621427699923515,7.621427699923515,8.972735299961641,['3'],[1.349074300029315],[None],413167,001,2024-12-03_02h30.02.008,solo_project,2024.1.5,None,2024-12-03 02h30.09.442791 +0530,
random,4,0,0,0,2,,,,,,,,,,,,,,,,,413167,001,2024-12-03_02h30.02.008,solo_project,2024.1.5,None,2024-12-03 02h30.09.442791 +0530,
patterned,1,0,1,1,3,0,0,0,0,8.987955400021747,,8.975811899988912,8.987955400021747,8.987955400021747,8.987955400021747,8.987955400021747,8.987955400021747,9.672065999940969,['1'],[0.6753370999358594],[None],413167,001,2024-12-03_02h30.02.008,solo_project,2024.1.5,None,2024-12-03 02h30.09.442791 +0530,
patterned,3,0,1,1,3,0,1,1,1,9.688137499964796,,9.672590299975127,9.688137499964796,9.688137499964796,9.688137499964796,9.688137499964796,9.688137499964796,11.055579099920578,['4'],[1.362733899964951],[None],413167,001,2024-12-03_02h30.02.008,solo_project,2024.1.5,None,2024-12-03 02h30.09.442791 +0530,
patterned,2,0,1,1,3,0,2,2,2,11.071567100007087,,11.056101699941792,11.071567100007087,11.071567100007087,11.071567100007087,11.071567100007087,11.071567100007087,11.98909809999168,['2'],[0.9072011000243947],[None],413167,001,2024-12-03_02h30.02.008,solo_project,2024.1.5,None,2024-12-03 02h30.09.442791 +0530,
patterned,4,0,1,1,3,0,3,3,3,12.004730999935418,,11.989534799940884,12.004730999935418,12.004730999935418,12.004730999935418,12.004730999935418,12.004730999935418,13.622308499994688,['3'],[1.6134904000209644],[None],413167,001,2024-12-03_02h30.02.008,solo_project,2024.1.5,None,2024-12-03 02h30.09.442791 +0530,
patterned,1,0,1,1,3,1,0,4,0,13.637964399997145,,13.622718299971893,13.637964399997145,13.637964399997145,13.637964399997145,13.637964399997145,13.637964399997145,14.322373499977402,['1'],[0.6673282000701874],[None],413167,001,2024-12-03_02h30.02.008,solo_project,2024.1.5,None,2024-12-03 02h30.09.442791 +0530,
patterned,3,0,1,1,3,1,1,5,1,14.33816179994028,,14.322769699967466,14.33816179994028,14.33816179994028,14.33816179994028,14.33816179994028,14.33816179994028,15.755742099951021,['4'],[1.412005199934356],[None],413167,001,2024-12-03_02h30.02.008,solo_project,2024.1.5,None,2024-12-03 02h30.09.442791 +0530,
patterned,2,0,1,1,3,1,2,6,2,15.771468699909747,,15.75615619996097,15.771468699909747,15.771468699909747,15.771468699909747,15.771468699909747,15.771468699909747,16.606157499947585,['2'],[0.8323418999789283],[None],413167,001,2024-12-03_02h30.02.008,solo_project,2024.1.5,None,2024-12-03 02h30.09.442791 +0530,
patterned,4,0,1,1,3,1,3,7,3,16.6213050999213,,16.60658689995762,16.6213050999213,16.6213050999213,16.6213050999213,16.6213050999213,16.6213050999213,18.22247099992819,['3'],[1.5984054999426007],[None],413167,001,2024-12-03_02h30.02.008,solo_project,2024.1.5,None,2024-12-03 02h30.09.442791 +0530,
random,2,0,1,1,3,,,,,,,,,,,,,,,,,413167,001,2024-12-03_02h30.02.008,solo_project,2024.1.5,None,2024-12-03 02h30.09.442791 +0530,
patterned,1,0,2,2,1,0,0,0,0,18.238200999912806,,18.225648999912664,18.238200999912806,18.238200999912806,18.238200999912806,18.238200999912806,18.238200999912806,19.02246279991232,['1'],[0.7732063001021743],[None],413167,001,2024-12-03_02h30.02.008,solo_project,2024.1.5,None,2024-12-03 02h30.09.442791 +0530,
patterned,3,0,2,2,1,0,1,1,1,19.038119899923913,,19.022980200010352,19.038119899923913,19.038119899923913,19.038119899923913,19.038119899923913,19.038119899923913,20.324000200023875,['4'],[1.2733897999860346],[None],413167,001,2024-12-03_02h30.02.008,solo_project,2024.1.5,None,2024-12-03 02h30.09.442791 +0530,
patterned,2,0,2,2,1,0,2,2,2,20.338285199948587,,20.324433299945667,20.338285199948587,20.338285199948587,20.338285199948587,20.338285199948587,20.338285199948587,21.205707999994047,['2'],[0.8512065000832081],[None],413167,001,2024-12-03_02h30.02.008,solo_project,2024.1.5,None,2024-12-03 02h30.09.442791 +0530,
patterned,4,0,2,2,1,0,3,3,3,21.221410099999048,,21.206077600014396,21.221410099999048,21.221410099999048,21.221410099999048,21.221410099999048,21.221410099999048,22.556581299984828,['3'],[1.3198415000224486],[None],413167,001,2024-12-03_02h30.02.008,solo_project,2024.1.5,None,2024-12-03 02h30.09.442791 +0530,
patterned,1,0,2,2,1,1,0,4,0,22.57162469998002,,22.55714429996442,22.57162469998002,22.57162469998002,22.57162469998002,22.57162469998002,22.57162469998002,23.40642020001542,['1'],[0.8332947000162676],[None],413167,001,2024-12-03_02h30.02.008,solo_project,2024.1.5,None,2024-12-03 02h30.09.442791 +0530,
patterned,3,0,2,2,1,1,1,5,1,23.421333499951288,,23.40684459998738,23.421333499951288,23.421333499951288,23.421333499951288,23.421333499951288,23.421333499951288,24.389544099918567,['4'],[0.9572276000399143],[None],413167,001,2024-12-03_02h30.02.008,solo_project,2024.1.5,None,2024-12-03 02h30.09.442791 +0530,
patterned,2,0,2,2,1,1,2,6,2,24.40470039995853,,24.38992889993824,24.40470039995853,24.40470039995853,24.40470039995853,24.40470039995853,24.40470039995853,25.25536930002272,['2'],[0.8452968000201508],[None],413167,001,2024-12-03_02h30.02.008,solo_project,2024.1.5,None,2024-12-03 02h30.09.442791 +0530,
patterned,4,0,2,2,1,1,3,7,3,25.27163400000427,,25.25573470001109,25.27163400000427,25.27163400000427,25.27163400000427,25.27163400000427,25.27163400000427,26.25542870000936,['4'],[0.9809928999748081],[None],413167,001,2024-12-03_02h30.02.008,solo_project,2024.1.5,None,2024-12-03 02h30.09.442791 +0530,
random,1,0,2,2,1,,,,,,,,,,,,,,,,,413167,001,2024-12-03_02h30.02.008,solo_project,2024.1.5,None,2024-12-03 02h30.09.442791 +0530,
patterned,1,0,3,3,0,0,0,0,0,26.27134209999349,,26.25872799998615,26.27134209999349,26.27134209999349,26.27134209999349,26.27134209999349,26.27134209999349,28.772159899934195,['1'],[2.488791299983859],[None],413167,001,2024-12-03_02h30.02.008,solo_project,2024.1.5,None,2024-12-03 02h30.09.442791 +0530,
patterned,3,0,3,3,0,0,1,1,1,28.78818589996081,,28.772650599945337,28.78818589996081,28.78818589996081,28.78818589996081,28.78818589996081,28.78818589996081,29.85592949995771,['4'],[1.0543524998938665],[None],413167,001,2024-12-03_02h30.02.008,solo_project,2024.1.5,None,2024-12-03 02h30.09.442791 +0530,
patterned,2,0,3,3,0,0,2,2,2,29.87140669999644,,29.856423999997787,29.87140669999644,29.87140669999644,29.87140669999644,29.87140669999644,29.87140669999644,31.155427200021222,['2'],[1.2811980999540538],[None],413167,001,2024-12-03_02h30.02.008,solo_project,2024.1.5,None,2024-12-03 02h30.09.442791 +0530,
patterned,4,0,3,3,0,0,3,3,3,31.17188499995973,,31.15579250000883,31.17188499995973,31.17188499995973,31.17188499995973,31.17188499995973,31.17188499995973,31.972282200003974,['3'],[0.7985411001136526],[None],413167,001,2024-12-03_02h30.02.008,solo_project,2024.1.5,None,2024-12-03 02h30.09.442791 +0530,
patterned,1,0,3,3,0,1,0,4,0,31.988144399947487,,31.972671299939975,31.988144399947487,31.988144399947487,31.988144399947487,31.988144399947487,31.988144399947487,32.855468899942935,['1'],[0.8610733000095934],[None],413167,001,2024-12-03_02h30.02.008,solo_project,2024.1.5,None,2024-12-03 02h30.09.442791 +0530,
patterned,3,0,3,3,0,1,1,5,1,32.87127809994854,,32.855937300017104,32.87127809994854,32.87127809994854,32.87127809994854,32.87127809994854,32.87127809994854,33.855449299910106,['4'],[0.9711463999701664],[None],413167,001,2024-12-03_02h30.02.008,solo_project,2024.1.5,None,2024-12-03 02h30.09.442791 +0530,
patterned,2,0,3,3,0,1,2,6,2,33.871476299944334,,33.855823099962436,33.871476299944334,33.871476299944334,33.871476299944334,33.871476299944334,33.871476299944334,34.60568619996775,['2'],[0.7271741000004113],[None],413167,001,2024-12-03_02h30.02.008,solo_project,2024.1.5,None,2024-12-03 02h30.09.442791 +0530,
patterned,4,0,3,3,0,1,3,7,3,34.62168009998277,,34.606082499958575,34.62168009998277,34.62168009998277,34.62168009998277,34.62168009998277,34.62168009998277,35.755926899961196,['3'],[1.1273876999039203],[None],413167,001,2024-12-03_02h30.02.008,solo_project,2024.1.5,None,2024-12-03 02h30.09.442791 +0530,
random,3,0,3,3,0,,,,,,,,,,,,,,,,,413167,001,2024-12-03_02h30.02.008,solo_project,2024.1.5,None,2024-12-03 02h30.09.442791 +0530,
patterned,1,1,0,4,0,0,0,0,0,35.77137339999899,,35.75922090001404,35.77137339999899,35.77137339999899,35.77137339999899,35.77137339999899,35.77137339999899,36.72282479994465,['1'],[0.9494577000150457],[None],413167,001,2024-12-03_02h30.02.008,solo_project,2024.1.5,None,2024-12-03 02h30.09.442791 +0530,
patterned,3,1,0,4,0,0,1,1,1,36.73789939994458,,36.72340619994793,36.73789939994458,36.73789939994458,36.73789939994458,36.73789939994458,36.73789939994458,38.17277309997007,['4'],[1.4322942999424413],[None],413167,001,2024-12-03_02h30.02.008,solo_project,2024.1.5,None,2024-12-03 02h30.09.442791 +0530,
patterned,2,1,0,4,0,0,2,2,2,38.18806580000091,,38.17319200001657,38.18806580000091,38.18806580000091,38.18806580000091,38.18806580000091,38.18806580000091,38.989257699926384,['2'],[0.7916503999149427],[None],413167,001,2024-12-03_02h30.02.008,solo_project,2024.1.5,None,2024-12-03 02h30.09.442791 +0530,
patterned,4,1,0,4,0,0,3,3,3,39.00483709992841,,38.98974340001587,39.00483709992841,39.00483709992841,39.00483709992841,39.00483709992841,39.00483709992841,39.82229579996783,['3'],[0.8088471000082791],[None],413167,001,2024-12-03_02h30.02.008,solo_project,2024.1.5,None,2024-12-03 02h30.09.442791 +0530,
patterned,1,1,0,4,0,1,0,4,0,39.83793839998543,,39.82269169995561,39.83793839998543,39.83793839998543,39.83793839998543,39.83793839998543,39.83793839998543,40.37248989997897,['1'],[0.5301862000487745],[None],413167,001,2024-12-03_02h30.02.008,solo_project,2024.1.5,None,2024-12-03 02h30.09.442791 +0530,
patterned,3,1,0,4,0,1,1,5,1,40.38780359993689,,40.37287869991269,40.38780359993689,40.38780359993689,40.38780359993689,40.38780359993689,40.38780359993689,41.238792999996804,['4'],[0.8470708000240847],[None],413167,001,2024-12-03_02h30.02.008,solo_project,2024.1.5,None,2024-12-03 02h30.09.442791 +0530,
patterned,2,1,0,4,0,1,2,6,2,41.25459879997652,,41.239156499970704,41.25459879997652,41.25459879997652,41.25459879997652,41.25459879997652,41.25459879997652,41.92218380002305,['2'],[0.6537293000146747],[None],413167,001,2024-12-03_02h30.02.008,solo_project,2024.1.5,None,2024-12-03 02h30.09.442791 +0530,
patterned,4,1,0,4,0,1,3,7,3,41.93794510001317,,41.92256929993164,41.93794510001317,41.93794510001317,41.93794510001317,41.93794510001317,41.93794510001317,45.02331289998256,['3'],[3.0836237999610603],[None],413167,001,2024-12-03_02h30.02.008,solo_project,2024.1.5,None,2024-12-03 02h30.09.442791 +0530,
random,3,1,0,4,0,,,,,,,,,,,,,,,,,413167,001,2024-12-03_02h30.02.008,solo_project,2024.1.5,None,2024-12-03 02h30.09.442791 +0530,
patterned,1,1,1,5,3,0,0,0,0,45.03802460001316,,45.02660699991975,45.03802460001316,45.03802460001316,45.03802460001316,45.03802460001316,45.03802460001316,46.10596820001956,['1'],[1.0660204999148846],[None],413167,001,2024-12-03_02h30.02.008,solo_project,2024.1.5,None,2024-12-03 02h30.09.442791 +0530,
patterned,3,1,1,5,3,0,1,1,1,46.12139380001463,,46.10662929993123,46.12139380001463,46.12139380001463,46.12139380001463,46.12139380001463,46.12139380001463,47.189002899918705,['4'],[1.056968499906361],[None],413167,001,2024-12-03_02h30.02.008,solo_project,2024.1.5,None,2024-12-03 02h30.09.442791 +0530,
patterned,2,1,1,5,3,0,2,2,2,47.2047748999903,,47.18938519991934,47.2047748999903,47.2047748999903,47.2047748999903,47.2047748999903,47.2047748999903,48.488920499919914,['2'],[1.2728029999416322],[None],413167,001,2024-12-03_02h30.02.008,solo_project,2024.1.5,None,2024-12-03 02h30.09.442791 +0530,
patterned,4,1,1,5,3,0,3,3,3,48.50487099995371,,48.48930699995253,48.50487099995371,48.50487099995371,48.50487099995371,48.50487099995371,48.50487099995371,49.955315799918026,['3'],[1.4377872999757528],[None],413167,001,2024-12-03_02h30.02.008,solo_project,2024.1.5,None,2024-12-03 02h30.09.442791 +0530,
patterned,1,1,1,5,3,1,0,4,0,49.97126129991375,,49.95570409996435,49.97126129991375,49.97126129991375,49.97126129991375,49.97126129991375,49.97126129991375,50.8223972999258,['1'],[0.8345534999389201],[None],413167,001,2024-12-03_02h30.02.008,solo_project,2024.1.5,None,2024-12-03 02h30.09.442791 +0530,
patterned,3,1,1,5,3,1,1,5,1,50.8381953999633,,50.82277189998422,50.8381953999633,50.8381953999633,50.8381953999633,50.8381953999633,50.8381953999633,51.70529039995745,['4'],[0.8630852999631315],[None],413167,001,2024-12-03_02h30.02.008,solo_project,2024.1.5,None,2024-12-03 02h30.09.442791 +0530,
patterned,2,1,1,5,3,1,2,6,2,51.72144270001445,,51.705659099970944,51.72144270001445,51.72144270001445,51.72144270001445,51.72144270001445,51.72144270001445,52.58871249994263,['2'],[0.8529131999239326],[None],413167,001,2024-12-03_02h30.02.008,solo_project,2024.1.5,None,2024-12-03 02h30.09.442791 +0530,
patterned,4,1,1,5,3,1,3,7,3,52.6046583999414,,52.589091799920425,52.6046583999414,52.6046583999414,52.6046583999414,52.6046583999414,52.6046583999414,53.53920240001753,['3'],[0.9321636999957263],[None],413167,001,2024-12-03_02h30.02.008,solo_project,2024.1.5,None,2024-12-03 02h30.09.442791 +0530,
random,2,1,1,5,3,,,,,,,,,,,,,,,,,413167,001,2024-12-03_02h30.02.008,solo_project,2024.1.5,None,2024-12-03 02h30.09.442791 +0530,
patterned,1,1,2,6,2,0,0,0,0,53.55462890001945,,53.542145899962634,53.55462890001945,53.55462890001945,53.55462890001945,53.55462890001945,53.55462890001945,54.339425100013614,['1'],[0.7781049999175593],[None],413167,001,2024-12-03_02h30.02.008,solo_project,2024.1.5,None,2024-12-03 02h30.09.442791 +0530,
patterned,3,1,2,6,2,0,1,1,1,54.354508099961095,,54.33994299999904,54.354508099961095,54.354508099961095,54.354508099961095,54.354508099961095,54.354508099961095,55.88964169996325,['4'],[1.533613699954003],[None],413167,001,2024-12-03_02h30.02.008,solo_project,2024.1.5,None,2024-12-03 02h30.09.442791 +0530,
patterned,2,1,2,6,2,0,2,2,2,55.90458239999134,,55.890054999967106,55.90458239999134,55.90458239999134,55.90458239999134,55.90458239999134,55.90458239999134,56.65664459997788,['2'],[0.7435192000120878],[None],413167,001,2024-12-03_02h30.02.008,solo_project,2024.1.5,None,2024-12-03 02h30.09.442791 +0530,
patterned,4,1,2,6,2,0,3,3,3,56.671273799962364,,56.65707720001228,56.671273799962364,56.671273799962364,56.671273799962364,56.671273799962364,56.671273799962364,57.6394681999227,['3'],[0.9607316999463364],[None],413167,001,2024-12-03_02h30.02.008,solo_project,2024.1.5,None,2024-12-03 02h30.09.442791 +0530,
patterned,1,1,2,6,2,1,0,4,0,57.65476119995583,,57.63988079992123,57.65476119995583,57.65476119995583,57.65476119995583,57.65476119995583,57.65476119995583,58.205847000004724,['1'],[0.5374261999968439],[None],413167,001,2024-12-03_02h30.02.008,solo_project,2024.1.5,None,2024-12-03 02h30.09.442791 +0530,
patterned,3,1,2,6,2,1,1,5,1,58.22134990000632,,58.20644460001495,58.22134990000632,58.22134990000632,58.22134990000632,58.22134990000632,58.22134990000632,59.17250480002258,['4'],[0.9454368998995051],[None],413167,001,2024-12-03_02h30.02.008,solo_project,2024.1.5,None,2024-12-03 02h30.09.442791 +0530,
patterned,2,1,2,6,2,1,2,6,2,59.188041999936104,,59.1729274999816,59.188041999936104,59.188041999936104,59.188041999936104,59.188041999936104,59.188041999936104,59.956788799958304,['2'],[0.7674339000368491],[None],413167,001,2024-12-03_02h30.02.008,solo_project,2024.1.5,None,2024-12-03 02h30.09.442791 +0530,
patterned,4,1,2,6,2,1,3,7,3,59.971259900019504,,59.95719129999634,59.971259900019504,59.971259900019504,59.971259900019504,59.971259900019504,59.971259900019504,61.722160600009374,['3'],[1.742871499969624],[None],413167,001,2024-12-03_02h30.02.008,solo_project,2024.1.5,None,2024-12-03 02h30.09.442791 +0530,
random,4,1,2,6,2,,,,,,,,,,,,,,,,,413167,001,2024-12-03_02h30.02.008,solo_project,2024.1.5,None,2024-12-03 02h30.09.442791 +0530,
patterned,1,1,3,7,1,0,0,0,0,61.73794719995931,,61.72521980002057,61.73794719995931,61.73794719995931,61.73794719995931,61.73794719995931,61.73794719995931,62.555538399959914,['1'],[0.8093490999890491],[None],413167,001,2024-12-03_02h30.02.008,solo_project,2024.1.5,None,2024-12-03 02h30.09.442791 +0530,
patterned,3,1,3,7,1,0,1,1,1,62.57132809993345,,62.55604820000008,62.57132809993345,62.57132809993345,62.57132809993345,62.57132809993345,62.57132809993345,63.53951229993254,['4'],[0.9628109999466687],[None],413167,001,2024-12-03_02h30.02.008,solo_project,2024.1.5,None,2024-12-03 02h30.09.442791 +0530,
patterned,2,1,3,7,1,0,2,2,2,63.554613600019366,,63.53991299995687,63.554613600019366,63.554613600019366,63.554613600019366,63.554613600019366,63.554613600019366,64.40567719994579,['2'],[0.8364663000684232],[None],413167,001,2024-12-03_02h30.02.008,solo_project,2024.1.5,None,2024-12-03 02h30.09.442791 +0530,
patterned,4,1,3,7,1,0,3,3,3,64.42132449999917,,64.4061826999532,64.42132449999917,64.42132449999917,64.42132449999917,64.42132449999917,64.42132449999917,65.3222073999932,['3'],[0.8975771999685094],[None],413167,001,2024-12-03_02h30.02.008,solo_project,2024.1.5,None,2024-12-03 02h30.09.442791 +0530,
patterned,1,1,3,7,1,1,0,4,0,65.33778539998457,,65.3225716999732,65.33778539998457,65.33778539998457,65.33778539998457,65.33778539998457,65.33778539998457,65.98865800001658,['1'],[0.647244599997066],[None],413167,001,2024-12-03_02h30.02.008,solo_project,2024.1.5,None,2024-12-03 02h30.09.442791 +0530,
patterned,3,1,3,7,1,1,1,5,1,66.00466929993127,,65.98901949997526,66.00466929993127,66.00466929993127,66.00466929993127,66.00466929993127,66.00466929993127,66.92208199994639,['4'],[0.9124300999101251],[None],413167,001,2024-12-03_02h30.02.008,solo_project,2024.1.5,None,2024-12-03 02h30.09.442791 +0530,
patterned,2,1,3,7,1,1,2,6,2,66.93782599992119,,66.92247210000642,66.93782599992119,66.93782599992119,66.93782599992119,66.93782599992119,66.93782599992119,67.93905239994638,['2'],[0.9890992000000551],[None],413167,001,2024-12-03_02h30.02.008,solo_project,2024.1.5,None,2024-12-03 02h30.09.442791 +0530,
patterned,4,1,3,7,1,1,3,7,3,67.954611599911,,67.93944659992121,67.954611599911,67.954611599911,67.954611599911,67.954611599911,67.954611599911,69.82292940001935,['3'],[1.8535934999817982],[None],413167,001,2024-12-03_02h30.02.008,solo_project,2024.1.5,None,2024-12-03 02h30.09.442791 +0530,
random,1,1,3,7,1,,,,,,,,,,,,,,,,,413167,001,2024-12-03_02h30.02.008,solo_project,2024.1.5,None,2024-12-03 02h30.09.442791 +0530,
