stair.thisTrialN,stair.stepSize,stair.intensity,thisRow.t,notes,trial.started,fixation.started,grating.started,key_resp.started,fixation.stopped,grating.stopped,trial.stopped,corrAns,tilt,key_resp.corr,stair.response,key_resp.rt,participant,session,date,expName,psychopyVersion,frameRate,expStart,
0,2,10.0,0.10147699993103743,,0.06269740010611713,0.10147699993103743,0.6959718000143766,0.6959718000143766,0.7145184001419693,1.0000692000612617,3.722034400096163,left,-10.0,1,1,2.898984600091353,100286,001,2024-09-06_10h38.06.346,staircase,2024.1.5,None,2024-09-06 10h38.12.624921 +0530,
1,2,8.0,3.72811820008792,,3.7221047000493854,3.72811820008792,4.229232199955732,4.229232199955732,4.229232199955732,4.528818600112572,4.84729570010677,right,8.0,1,1,0.6148703000508249,100286,001,2024-09-06_10h38.06.346,staircase,2024.1.5,None,2024-09-06 10h38.12.624921 +0530,
2,2,6.0,4.862469400046393,,4.847362499916926,4.862469400046393,5.362865899922326,5.362865899922326,5.362865899922326,5.662591600092128,5.913766799960285,left,-6.0,1,1,0.5386921998579055,100286,001,2024-09-06_10h38.06.346,staircase,2024.1.5,None,2024-09-06 10h38.12.624921 +0530,
3,2,4.0,5.929362500086427,,5.913835300132632,5.929362500086427,6.429399800021201,6.429399800021201,6.429399800021201,6.729432600084692,6.813803000142798,right,4.0,1,1,0.37193759996443987,100286,001,2024-09-06_10h38.06.346,staircase,2024.1.5,None,2024-09-06 10h38.12.624921 +0530,
4,2,2.0,6.829253199975938,,6.813872199971229,6.829253199975938,7.329479299951345,7.329479299951345,7.329479299951345,7.629480500007048,7.746636399999261,left,-2.0,1,1,0.4027691001538187,100286,001,2024-09-06_10h38.06.346,staircase,2024.1.5,None,2024-09-06 10h38.12.624921 +0530,
5,2,1.0,7.762322100112215,,7.746701600030065,7.762322100112215,8.262883600080386,8.262883600080386,8.262883600080386,8.562540400074795,10.013303100131452,left,-1.0,1,1,1.7471587001346052,100286,001,2024-09-06_10h38.06.346,staircase,2024.1.5,None,2024-09-06 10h38.12.624921 +0530,
6,2,1.0,10.02913839998655,,10.01337209995836,10.02913839998655,10.529115699930117,10.529115699930117,10.529115699930117,10.829424299998209,11.313287100056186,right,1.0,1,1,0.7682990999892354,100286,001,2024-09-06_10h38.06.346,staircase,2024.1.5,None,2024-09-06 10h38.12.624921 +0530,
7,2,1.0,11.329183200141415,,11.313356600003317,11.329183200141415,11.812616399955004,11.812616399955004,11.829283500090241,12.112258600071073,12.66332109994255,right,1.0,1,1,0.8352606000844389,100286,001,2024-09-06_10h38.06.346,staircase,2024.1.5,None,2024-09-06 10h38.12.624921 +0530,
8,1,1.0,12.679169200127944,,12.663386899977922,12.679169200127944,13.179044499993324,13.179044499993324,13.179044499993324,13.478941099951044,13.596513299969956,right,1.0,0,0,0.40318290004506707,100286,001,2024-09-06_10h38.06.346,staircase,2024.1.5,None,2024-09-06 10h38.12.624921 +0530,
9,1,2.0,13.61222489993088,,13.59658020013012,13.61222489993088,14.096066900063306,14.096066900063306,14.11235549999401,14.395873199915513,14.813776700058952,right,2.0,1,1,0.7034908002242446,100286,001,2024-09-06_10h38.06.346,staircase,2024.1.5,None,2024-09-06 10h38.12.624921 +0530,
10,1,2.0,14.829104300122708,,14.813841999974102,14.829104300122708,15.312347800005227,15.312347800005227,15.329288400011137,15.612980599980801,15.88009350001812,left,-2.0,1,1,0.5538503001444042,100286,001,2024-09-06_10h38.06.346,staircase,2024.1.5,None,2024-09-06 10h38.12.624921 +0530,
11,1,2.0,15.896178100025281,,15.880157300038263,15.896178100025281,16.3800206000451,16.3800206000451,16.396124799968675,16.679452100070193,17.27987359999679,left,-2.0,1,1,0.8910636000800878,100286,001,2024-09-06_10h38.06.346,staircase,2024.1.5,None,2024-09-06 10h38.12.624921 +0530,
12,1,1.0,17.2957057999447,,17.279941899934784,17.2957057999447,17.77922790008597,17.77922790008597,17.796248300001025,18.078920900123194,18.41395640000701,left,-1.0,1,1,0.6187869000714272,100286,001,2024-09-06_10h38.06.346,staircase,2024.1.5,None,2024-09-06 10h38.12.624921 +0530,
13,1,1.0,18.429231900023296,,18.414021800039336,18.429231900023296,18.929275300120935,18.929275300120935,18.929275300120935,19.228889600140974,20.11332969996147,left,-1.0,1,1,1.1773208000231534,100286,001,2024-09-06_10h38.06.346,staircase,2024.1.5,None,2024-09-06 10h38.12.624921 +0530,
14,1,1.0,20.129406600026414,,20.113395099993795,20.129406600026414,20.629442499950528,20.629442499950528,20.629442499950528,20.92920250003226,21.313088699942455,right,1.0,1,1,0.6773129999637604,100286,001,2024-09-06_10h38.06.346,staircase,2024.1.5,None,2024-09-06 10h38.12.624921 +0530,
15,1,1.0,21.329582300037146,,21.313158000120893,21.329582300037146,21.812291499925777,21.812291499925777,21.829762400127947,22.112559899920598,22.696637300075963,right,1.0,1,1,0.8777648000977933,100286,001,2024-09-06_10h38.06.346,staircase,2024.1.5,None,2024-09-06 10h38.12.624921 +0530,
16,1,1.0,22.712790500139818,,22.696747000096366,22.712790500139818,23.195621700026095,23.195621700026095,23.21339079993777,23.496539999963716,24.130852000089362,left,-1.0,1,1,0.9303439999930561,100286,001,2024-09-06_10h38.06.346,staircase,2024.1.5,None,2024-09-06 10h38.12.624921 +0530,
17,1,1.0,24.146470400039107,,24.130927100079134,24.146470400039107,24.646085700020194,24.646085700020194,24.646085700020194,24.945451100124046,25.279829200124368,left,-1.0,1,1,0.6282281000167131,100286,001,2024-09-06_10h38.06.346,staircase,2024.1.5,None,2024-09-06 10h38.12.624921 +0530,
18,1,1.0,25.29620059998706,,25.279895500047132,25.29620059998706,25.779322300106287,25.779322300106287,25.796266000019386,26.079197600018233,26.81342580006458,left,-1.0,1,1,1.0247059999965131,100286,001,2024-09-06_10h38.06.346,staircase,2024.1.5,None,2024-09-06 10h38.12.624921 +0530,
19,1,1.0,26.828884500078857,,26.813491800101474,26.828884500078857,27.31245859991759,27.31245859991759,27.33023350010626,27.612244199961424,27.96373590012081,right,1.0,1,1,0.6484283998142928,100286,001,2024-09-06_10h38.06.346,staircase,2024.1.5,None,2024-09-06 10h38.12.624921 +0530,
20,1,1.0,27.97906309994869,,27.963800200028345,27.97906309994869,28.47915649996139,28.47915649996139,28.47915649996139,28.77883780002594,31.14649310009554,left,-1.0,1,1,2.652997799916193,100286,001,2024-09-06_10h38.06.346,staircase,2024.1.5,None,2024-09-06 10h38.12.624921 +0530,
21,1,1.0,31.162568599916995,,31.146561299916357,31.162568599916995,31.645881900098175,31.645881900098175,31.662445300025865,31.94582140003331,32.29680190002546,left,-1.0,1,1,0.6360005000606179,100286,001,2024-09-06_10h38.06.346,staircase,2024.1.5,None,2024-09-06 10h38.12.624921 +0530,
22,1,1.0,32.312483499990776,,32.2968679999467,32.312483499990776,32.81244800006971,32.81244800006971,32.81244800006971,33.11278979992494,33.46335049998015,left,-1.0,1,1,0.647336200112477,100286,001,2024-09-06_10h38.06.346,staircase,2024.1.5,None,2024-09-06 10h38.12.624921 +0530,
23,0.5,1.0,33.479286900023,,33.46345950011164,33.479286900023,33.97927480004728,33.97927480004728,33.97927480004728,34.27918040007353,34.43015990010463,right,1.0,0,0,0.4361355002038181,100286,001,2024-09-06_10h38.06.346,staircase,2024.1.5,None,2024-09-06 10h38.12.624921 +0530,
24,0.5,1.5,34.44627690012567,,34.43023440008983,34.44627690012567,34.945791699923575,34.945791699923575,34.945791699923575,35.245941600063816,35.33013699995354,left,-1.5,1,1,0.3739267000928521,100286,001,2024-09-06_10h38.06.346,staircase,2024.1.5,None,2024-09-06 10h38.12.624921 +0530,
25,0.5,1.5,35.34589090012014,,35.33020500000566,35.34589090012014,35.82905749999918,35.82905749999918,35.84684900008142,36.12931019999087,36.14706870005466,left,-1.5,1,1,0.31691769999451935,100286,001,2024-09-06_10h38.06.346,staircase,2024.1.5,None,2024-09-06 10h38.12.624921 +0530,
26,0.5,1.5,36.16265990003012,,36.1471373999957,36.16265990003012,36.66334780002944,36.66334780002944,36.66334780002944,36.96282949997112,37.09674519998953,left,-1.5,1,1,0.42503680009394884,100286,001,2024-09-06_10h38.06.346,staircase,2024.1.5,None,2024-09-06 10h38.12.624921 +0530,
27,0.5,1.0,37.11233910010196,,37.09681429993361,37.11233910010196,37.59592360001989,37.59592360001989,37.61239399993792,37.89606579998508,38.213354600127786,right,1.0,1,1,0.6041431999765337,100286,001,2024-09-06_10h38.06.346,staircase,2024.1.5,None,2024-09-06 10h38.12.624921 +0530,
28,0.5,1.0,38.22922320012003,,38.21341899991967,38.22922320012003,38.71233190014027,38.71233190014027,38.72930010012351,39.0134966999758,39.23058480001055,right,1.0,1,1,0.5171495999675244,100286,001,2024-09-06_10h38.06.346,staircase,2024.1.5,None,2024-09-06 10h38.12.624921 +0530,
29,0.5,1.0,39.2457930999808,,39.23065800010227,39.2457930999808,39.746141500072554,39.746141500072554,39.746141500072554,40.04609260009602,40.19693229999393,right,1.0,1,1,0.4428743999451399,100286,001,2024-09-06_10h38.06.346,staircase,2024.1.5,None,2024-09-06 10h38.12.624921 +0530,
30,0.5,1.0,40.21228229999542,,40.197005100082606,40.21228229999542,40.71266230009496,40.71266230009496,40.71266230009496,41.01246550003998,41.129609799943864,right,1.0,1,1,0.4138039001263678,100286,001,2024-09-06_10h38.06.346,staircase,2024.1.5,None,2024-09-06 10h38.12.624921 +0530,
31,0.5,1.0,41.14575179992244,,41.12967550009489,41.14575179992244,41.62946750014089,41.62946750014089,41.64636080013588,41.92886340012774,42.13038669992238,left,-1.0,0,0,0.49817229993641376,100286,001,2024-09-06_10h38.06.346,staircase,2024.1.5,None,2024-09-06 10h38.12.624921 +0530,
32,0.5,1.5,42.14596400014125,,42.130454499972984,42.14596400014125,42.64627450006083,42.64627450006083,42.64627450006083,42.94564520008862,44.129929000046104,left,-1.5,1,1,1.4726196001283824,100286,001,2024-09-06_10h38.06.346,staircase,2024.1.5,None,2024-09-06 10h38.12.624921 +0530,
33,0.5,1.5,44.14554310007952,,44.12999620009214,44.14554310007952,44.62947880011052,44.62947880011052,44.64603940001689,44.929679499939084,45.34679600014351,left,-1.5,1,1,0.7080714998301119,100286,001,2024-09-06_10h38.06.346,staircase,2024.1.5,None,2024-09-06 10h38.12.624921 +0530,
34,0.5,1.5,45.36224199994467,,45.346860700054094,45.36224199994467,45.862841699970886,45.862841699970886,45.862841699970886,46.16285110008903,46.56332610012032,right,1.5,1,1,0.6919879000633955,100286,001,2024-09-06_10h38.06.346,staircase,2024.1.5,None,2024-09-06 10h38.12.624921 +0530,
35,0.5,1.0,46.578853900078684,,46.56339640007354,46.578853900078684,47.0796145000495,47.0796145000495,47.0796145000495,47.37907289993018,47.76355169992894,right,1.0,1,1,0.6825546999461949,100286,001,2024-09-06_10h38.06.346,staircase,2024.1.5,None,2024-09-06 10h38.12.624921 +0530,
36,0.5,1.0,47.779280100017786,,47.763621400110424,47.779280100017786,48.27900340012275,48.27900340012275,48.27900340012275,48.57914160005748,48.97945290012285,left,-1.0,1,1,0.6953055998310447,100286,001,2024-09-06_10h38.06.346,staircase,2024.1.5,None,2024-09-06 10h38.12.624921 +0530,
37,0.5,1.0,48.99555790005252,,48.97951720003039,48.99555790005252,49.478926700074226,49.478926700074226,49.496011100010946,49.77913479995914,49.88019940000959,right,1.0,1,1,0.3852954001631588,100286,001,2024-09-06_10h38.06.346,staircase,2024.1.5,None,2024-09-06 10h38.12.624921 +0530,
38,0.5,1.0,49.89608870004304,,49.880268400069326,49.89608870004304,50.39639130001888,50.39639130001888,50.39639130001888,50.69577440014109,51.07956030010246,left,-1.0,1,1,0.6740896999835968,100286,001,2024-09-06_10h38.06.346,staircase,2024.1.5,None,2024-09-06 10h38.12.624921 +0530,
39,0.5,1.0,51.09597110003233,,51.07962630013935,51.09597110003233,51.5794317999389,51.5794317999389,51.59601860004477,51.879166200058535,52.31343000009656,left,-1.0,1,1,0.7323249999899417,100286,001,2024-09-06_10h38.06.346,staircase,2024.1.5,None,2024-09-06 10h38.12.624921 +0530,
40,0.5,1.0,52.32958790007979,,52.313495400128886,52.32958790007979,52.81244110013358,52.81244110013358,52.829745300114155,53.112427399959415,53.81375780003145,right,1.0,0,0,0.997332600178197,100286,001,2024-09-06_10h38.06.346,staircase,2024.1.5,None,2024-09-06 10h38.12.624921 +0530,
41,0.5,1.5,53.82925740000792,,53.813836799934506,53.82925740000792,54.32947860006243,54.32947860006243,54.32947860006243,54.628944700118154,55.013593500014395,right,1.5,1,1,0.6782078999094665,100286,001,2024-09-06_10h38.06.346,staircase,2024.1.5,None,2024-09-06 10h38.12.624921 +0530,
42,0.5,1.5,55.02986750006676,,55.01366259995848,55.02986750006676,55.51268359995447,55.51268359995447,55.52890320005827,55.812223500106484,56.24744089995511,left,-1.5,1,1,0.7337026000022888,100286,001,2024-09-06_10h38.06.346,staircase,2024.1.5,None,2024-09-06 10h38.12.624921 +0530,
43,0.5,1.5,56.26258140010759,,56.247508300002664,56.26258140010759,56.762740599922836,56.762740599922836,56.762740599922836,57.06199790001847,57.430198800051585,left,-1.5,1,1,0.6642293001059443,100286,001,2024-09-06_10h38.06.346,staircase,2024.1.5,None,2024-09-06 10h38.12.624921 +0530,
44,0.5,1.0,57.445553600089625,,57.43027010001242,57.445553600089625,57.92956160008907,57.92956160008907,57.94609729992226,58.2289035001304,59.180256200022995,left,-1.0,1,1,1.2406673999503255,100286,001,2024-09-06_10h38.06.346,staircase,2024.1.5,None,2024-09-06 10h38.12.624921 +0530,
45,0.5,1.0,59.19596570008434,,59.18032160005532,59.19596570008434,59.69564740010537,59.69564740010537,59.69564740010537,59.99700230010785,61.56303800013848,right,1.0,1,1,1.865478000137955,100286,001,2024-09-06_10h38.06.346,staircase,2024.1.5,None,2024-09-06 10h38.12.624921 +0530,
46,0.5,1.0,61.57913989992812,,61.56310410005972,61.57913989992812,62.062276399927214,62.062276399927214,62.078853900078684,62.36234729993157,62.66320289997384,right,1.0,1,1,0.5940137999132276,100286,001,2024-09-06_10h38.06.346,staircase,2024.1.5,None,2024-09-06 10h38.12.624921 +0530,
47,0.5,1.0,62.67936210008338,,62.66327399993315,62.67936210008338,63.16250600013882,63.16250600013882,63.178940900135785,63.46246780012734,63.77993330010213,right,1.0,1,1,0.6036109998822212,100286,001,2024-09-06_10h38.06.346,staircase,2024.1.5,None,2024-09-06 10h38.12.624921 +0530,
48,0.5,1.0,63.79591570002958,,63.779997900128365,63.79591570002958,64.27919279993512,64.27919279993512,64.29568070010282,64.57943270006217,65.2130984000396,left,-1.0,1,1,0.9216392000671476,100286,001,2024-09-06_10h38.06.346,staircase,2024.1.5,None,2024-09-06 10h38.12.624921 +0530,
49,0.5,1.0,65.22926639998332,,65.21316320006736,65.22926639998332,65.71265470003709,65.71265470003709,65.72945440001786,66.0123705000151,66.7137174999807,right,1.0,1,1,0.9982678999658674,100286,001,2024-09-06_10h38.06.346,staircase,2024.1.5,None,2024-09-06 10h38.12.624921 +0530,
