stair.thisTrialN,stair.stepSize,stair.intensity,thisRow.t,notes,trial.started,fixation.started,grating.started,key_resp.started,fixation.stopped,grating.stopped,trial.stopped,corrAns,tilt,key_resp.corr,stair.response,key_resp.rt,participant,session,date,expName,psychopyVersion,frameRate,expStart,
0,2,10.0,0.028345200000330806,,0.011505500000566826,0.028345200000330806,0.5265134000001126,0.5265134000001126,0.5438766999996005,0.8268241999994643,1.4199664999996457,left,-10.0,1,1,0.767806500000006,603899,001,2024-09-10_15h50.41.620,staircase,2024.1.5,None,2024-09-10 15h50.46.868226 +0530,
1,2,8.0,1.4256060000006983,,1.4200376999997388,1.4256060000006983,1.926584400000138,1.926584400000138,1.926584400000138,2.2270864000001893,2.4112234999993234,left,-8.0,1,1,0.4814696000012191,603899,001,2024-09-10_15h50.41.620,staircase,2024.1.5,None,2024-09-10 15h50.46.868226 +0530,
2,2,6.0,2.426861399999325,,2.4112862999991194,2.426861399999325,2.926984399999128,2.926984399999128,2.926984399999128,3.227017600000181,3.3617513999997755,left,-6.0,1,1,0.433229800000845,603899,001,2024-09-10_15h50.41.620,staircase,2024.1.5,None,2024-09-10 15h50.46.868226 +0530,
3,2,4.0,3.377271800000017,,3.3618167999993602,3.377271800000017,3.876824499999202,3.876824499999202,3.876824499999202,4.1768178999991505,4.227654599999369,right,4.0,1,1,0.33602179999979853,603899,001,2024-09-10_15h50.41.620,staircase,2024.1.5,None,2024-09-10 15h50.46.868226 +0530,
4,2,2.0,4.243510799999058,,4.22771769999963,4.243510799999058,4.743575200000123,4.743575200000123,4.743575200000123,5.0439688000005845,5.512280499999179,right,2.0,1,1,0.7606605999990279,603899,001,2024-09-10_15h50.41.620,staircase,2024.1.5,None,2024-09-10 15h50.46.868226 +0530,
5,2,1.0,5.528278499999942,,5.51234149999982,5.528278499999942,6.026956699999573,6.026956699999573,6.044233299999178,6.326959199999692,7.095108100000289,right,1.0,1,1,1.0602708000005805,603899,001,2024-09-10_15h50.41.620,staircase,2024.1.5,None,2024-09-10 15h50.46.868226 +0530,
6,2,1.0,7.109918800000742,,7.095184600000721,7.109918800000742,7.6099278000001505,7.6099278000001505,7.6099278000001505,7.909988499999599,8.360753499999191,left,-1.0,1,1,0.7498297000001912,603899,001,2024-09-10_15h50.41.620,staircase,2024.1.5,None,2024-09-10 15h50.46.868226 +0530,
7,2,1.0,8.376924399999552,,8.36081700000068,8.376924399999552,8.859877799999595,8.859877799999595,8.877310199999556,9.160086100000626,9.910525499999494,left,-1.0,1,1,1.0427844999994704,603899,001,2024-09-10_15h50.41.620,staircase,2024.1.5,None,2024-09-10 15h50.46.868226 +0530,
8,2,1.0,9.926991899999848,,9.91058990000056,9.926991899999848,10.410435300000245,10.410435300000245,10.427307199999632,10.710139099999651,11.111021099999562,right,1.0,1,1,0.6917118999990635,603899,001,2024-09-10_15h50.41.620,staircase,2024.1.5,None,2024-09-10 15h50.46.868226 +0530,
9,2,1.0,11.12685810000039,,11.111083800000415,11.12685810000039,11.626647200000662,11.626647200000662,11.626647200000662,11.926584299999377,12.12779749999936,right,1.0,1,1,0.4945306999998138,603899,001,2024-09-10_15h50.41.620,staircase,2024.1.5,None,2024-09-10 15h50.46.868226 +0530,
10,1,1.0,12.143516300000556,,12.127860700000383,12.143516300000556,12.64355500000056,12.64355500000056,12.64355500000056,12.943624999999884,13.227290099999664,right,1.0,0,0,0.5712757000001147,603899,001,2024-09-10_15h50.41.620,staircase,2024.1.5,None,2024-09-10 15h50.46.868226 +0530,
11,1,2.0,13.243514600000708,,13.22735830000056,13.243514600000708,13.727213500000289,13.727213500000289,13.743344700000307,14.026981299999534,14.343968400000449,right,2.0,1,1,0.6005839000008564,603899,001,2024-09-10_15h50.41.620,staircase,2024.1.5,None,2024-09-10 15h50.46.868226 +0530,
12,1,2.0,14.35983320000014,,14.344031599999653,14.35983320000014,14.843871700000818,14.843871700000818,14.860441099999662,15.143861299999116,15.394513799999913,left,-2.0,1,1,0.5464694000002055,603899,001,2024-09-10_15h50.41.620,staircase,2024.1.5,None,2024-09-10 15h50.46.868226 +0530,
13,1,2.0,15.410874400000466,,15.394574399999328,15.410874400000466,15.910196700000597,15.910196700000597,15.910196700000597,16.2098160000005,16.610835600000428,right,2.0,1,1,0.6835623999995732,603899,001,2024-09-10_15h50.41.620,staircase,2024.1.5,None,2024-09-10 15h50.46.868226 +0530,
14,1,1.0,16.626852400000644,,16.610902599999463,16.626852400000644,17.110291099999813,17.110291099999813,17.127060299999357,17.410324299999047,17.810579099999813,left,-1.0,1,1,0.6881346999998641,603899,001,2024-09-10_15h50.41.620,staircase,2024.1.5,None,2024-09-10 15h50.46.868226 +0530,
15,1,1.0,17.826450399999885,,17.810641199999736,17.826450399999885,18.310844999999972,18.310844999999972,18.32688710000002,18.61062099999981,18.6772617000006,right,1.0,1,1,0.3580746999996336,603899,001,2024-09-10_15h50.41.620,staircase,2024.1.5,None,2024-09-10 15h50.46.868226 +0530,
16,1,1.0,18.693521400000463,,18.67732310000065,18.693521400000463,19.17658019999908,19.17658019999908,19.193646399999125,19.476844700000584,19.911135599999398,left,-1.0,1,1,0.7308078999994905,603899,001,2024-09-10_15h50.41.620,staircase,2024.1.5,None,2024-09-10 15h50.46.868226 +0530,
17,1,1.0,19.92685200000051,,19.9112425000003,19.92685200000051,20.426836700000422,20.426836700000422,20.426836700000422,20.726836100000583,20.794615999999223,right,1.0,1,1,0.3649657000005391,603899,001,2024-09-10_15h50.41.620,staircase,2024.1.5,None,2024-09-10 15h50.46.868226 +0530,
18,1,1.0,20.809807999999975,,20.794718600000124,20.809807999999975,21.310337099999742,21.310337099999742,21.310337099999742,21.609810500000094,21.72774550000031,right,1.0,1,1,0.41440429999966,603899,001,2024-09-10_15h50.41.620,staircase,2024.1.5,None,2024-09-10 15h50.46.868226 +0530,
19,1,1.0,21.743254799999704,,21.72780899999998,21.743254799999704,22.24371120000069,22.24371120000069,22.24371120000069,22.54334799999924,22.644236599999203,right,1.0,1,1,0.39840629999889643,603899,001,2024-09-10_15h50.41.620,staircase,2024.1.5,None,2024-09-10 15h50.46.868226 +0530,
20,1,1.0,22.66051300000072,,22.64430220000031,22.66051300000072,23.143864899999244,23.143864899999244,23.160130300000674,23.444014000000607,23.677267400000346,left,-1.0,1,1,0.5218899999999849,603899,001,2024-09-10_15h50.41.620,staircase,2024.1.5,None,2024-09-10 15h50.46.868226 +0530,
21,0.5,1.0,23.693482599999697,,23.67733159999989,23.693482599999697,24.177029700000276,24.177029700000276,24.193756999999096,24.477079199999935,24.627870500000427,left,-1.0,0,0,0.4490389000002324,603899,001,2024-09-10_15h50.41.620,staircase,2024.1.5,None,2024-09-10 15h50.46.868226 +0530,
22,0.5,1.5,24.643373700000666,,24.627934500000265,24.643373700000666,25.14370670000062,25.14370670000062,25.14370670000062,25.443337799999426,25.977100599999176,left,-1.5,1,1,0.8205250000009983,603899,001,2024-09-10_15h50.41.620,staircase,2024.1.5,None,2024-09-10 15h50.46.868226 +0530,
23,0.5,1.5,25.993151299999226,,25.9771638000002,25.993151299999226,26.476891599999362,26.476891599999362,26.493459799999982,26.776887199999692,27.393921000000773,left,-1.5,1,1,0.9115045000016835,603899,001,2024-09-10_15h50.41.620,staircase,2024.1.5,None,2024-09-10 15h50.46.868226 +0530,
24,0.5,1.5,27.41063469999972,,27.394043199999942,27.41063469999972,27.89311970000017,27.89311970000017,27.91010230000029,28.193436999999903,28.394097899999906,right,1.5,1,1,0.4995257999999012,603899,001,2024-09-10_15h50.41.620,staircase,2024.1.5,None,2024-09-10 15h50.46.868226 +0530,
25,0.5,1.0,28.40998810000019,,28.39416429999983,28.40998810000019,28.910260599999674,28.910260599999674,28.910260599999674,29.209729599999264,29.627365799999097,left,-1.0,1,1,0.7052371999998286,603899,001,2024-09-10_15h50.41.620,staircase,2024.1.5,None,2024-09-10 15h50.46.868226 +0530,
26,0.5,1.0,29.643686100000195,,29.627433600000586,29.643686100000195,30.12686919999942,30.12686919999942,30.143447899999956,30.426417500000753,30.661042699999598,left,-1.0,1,1,0.5328982999999425,603899,001,2024-09-10_15h50.41.620,staircase,2024.1.5,None,2024-09-10 15h50.46.868226 +0530,
27,0.5,1.0,30.676753600000666,,30.66110750000007,30.676753600000666,31.176507800000763,31.176507800000763,31.176507800000763,31.476721499999258,31.710682000000816,right,1.0,1,1,0.532180199999857,603899,001,2024-09-10_15h50.41.620,staircase,2024.1.5,None,2024-09-10 15h50.46.868226 +0530,
28,0.5,1.0,31.72718789999999,,31.710746999999174,31.72718789999999,32.21036300000014,32.21036300000014,32.22645469999952,32.5101508000007,32.744856600000276,left,-1.0,1,1,0.5232353999999759,603899,001,2024-09-10_15h50.41.620,staircase,2024.1.5,None,2024-09-10 15h50.46.868226 +0530,
29,0.5,1.0,32.75974850000057,,32.74492819999978,32.75974850000057,33.260003600000346,33.260003600000346,33.260003600000346,33.56003369999962,33.76084110000011,left,-1.0,0,0,0.4928177000001597,603899,001,2024-09-10_15h50.41.620,staircase,2024.1.5,None,2024-09-10 15h50.46.868226 +0530,
30,0.5,1.5,33.77640389999942,,33.76090999999906,33.77640389999942,34.26023610000084,34.26023610000084,34.277003299999706,34.55970139999954,35.010404200000266,right,1.5,1,1,0.7339465000004566,603899,001,2024-09-10_15h50.41.620,staircase,2024.1.5,None,2024-09-10 15h50.46.868226 +0530,
31,0.5,1.5,35.0264559999996,,35.010467699999936,35.0264559999996,35.5101336000007,35.5101336000007,35.526535999999396,35.809939299999314,35.978205600000365,right,1.5,1,1,0.45215839999946184,603899,001,2024-09-10_15h50.41.620,staircase,2024.1.5,None,2024-09-10 15h50.46.868226 +0530,
32,0.5,1.5,35.99351999999999,,35.97827089999919,35.99351999999999,36.493246300000465,36.493246300000465,36.493246300000465,36.793674500000634,36.89400740000019,left,-1.5,1,1,0.38691020000078424,603899,001,2024-09-10_15h50.41.620,staircase,2024.1.5,None,2024-09-10 15h50.46.868226 +0530,
33,0.5,1.0,36.90977229999953,,36.89407360000041,36.90977229999953,37.39368619999914,37.39368619999914,37.40990620000048,37.69306350000079,38.06044610000026,left,-1.0,1,1,0.6508991999999125,603899,001,2024-09-10_15h50.41.620,staircase,2024.1.5,None,2024-09-10 15h50.46.868226 +0530,
34,0.5,1.0,38.076838599999974,,38.0605087999993,38.076838599999974,38.56017939999947,38.56017939999947,38.57644950000031,38.8604591000003,39.5943258999996,left,-1.0,1,1,1.0235367999994196,603899,001,2024-09-10_15h50.41.620,staircase,2024.1.5,None,2024-09-10 15h50.46.868226 +0530,
35,0.5,1.0,39.610325399999056,,39.59439019999991,39.610325399999056,40.09320110000044,40.09320110000044,40.11011780000081,40.393001899999945,40.89392249999946,right,1.0,1,1,0.796793900000921,603899,001,2024-09-10_15h50.41.620,staircase,2024.1.5,None,2024-09-10 15h50.46.868226 +0530,
36,0.5,1.0,40.910188500000004,,40.89400770000066,40.910188500000004,41.39382950000072,41.39382950000072,41.410215300000345,41.693132700000206,42.01052139999956,right,1.0,1,1,0.6098579999998037,603899,001,2024-09-10_15h50.41.620,staircase,2024.1.5,None,2024-09-10 15h50.46.868226 +0530,
37,0.5,1.0,42.026464900000065,,42.01058770000054,42.026464900000065,42.5101252000004,42.5101252000004,42.52659449999919,42.809821400000146,43.044052699999156,right,1.0,1,1,0.5287551000001258,603899,001,2024-09-10_15h50.41.620,staircase,2024.1.5,None,2024-09-10 15h50.46.868226 +0530,
38,0.5,1.0,43.06014900000082,,43.044119899999714,43.06014900000082,43.54367760000059,43.54367760000059,43.55999100000008,43.843188999999256,44.26102270000047,left,-1.0,1,1,0.7026363999993919,603899,001,2024-09-10_15h50.41.620,staircase,2024.1.5,None,2024-09-10 15h50.46.868226 +0530,
39,0.5,1.0,44.27801630000067,,44.261106500000096,44.27801630000067,44.7768458999999,44.7768458999999,44.793323600000804,45.07664920000025,45.47732779999933,right,1.0,1,1,0.6903232000004209,603899,001,2024-09-10_15h50.41.620,staircase,2024.1.5,None,2024-09-10 15h50.46.868226 +0530,
40,0.5,1.0,45.49307889999909,,45.477390599999126,45.49307889999909,45.99320830000033,45.99320830000033,45.99320830000033,46.29297570000017,46.87744670000029,left,-1.0,1,1,0.8797794999991311,603899,001,2024-09-10_15h50.41.620,staircase,2024.1.5,None,2024-09-10 15h50.46.868226 +0530,
41,0.5,1.0,46.89317429999937,,46.877522200000385,46.89317429999937,47.39326489999985,47.39326489999985,47.39326489999985,47.69334759999947,47.97809380000035,right,1.0,1,1,0.5723149000004923,603899,001,2024-09-10_15h50.41.620,staircase,2024.1.5,None,2024-09-10 15h50.46.868226 +0530,
42,0.5,1.0,47.99332130000039,,47.97815939999964,47.99332130000039,48.49318560000029,48.49318560000029,48.49318560000029,48.79300440000043,49.043920699999944,left,-1.0,1,1,0.5410521000012523,603899,001,2024-09-10_15h50.41.620,staircase,2024.1.5,None,2024-09-10 15h50.46.868226 +0530,
43,0.5,1.0,49.05999949999932,,49.043983199999275,49.05999949999932,49.543013299999075,49.543013299999075,49.55971789999967,49.84331620000012,50.361181000000215,left,-1.0,1,1,0.8145702999991045,603899,001,2024-09-10_15h50.41.620,staircase,2024.1.5,None,2024-09-10 15h50.46.868226 +0530,
44,0.5,1.0,50.37702960000024,,50.361247799999546,50.37702960000024,50.8767196000008,50.8767196000008,50.8767196000008,51.17665390000002,51.74432209999941,left,-1.0,1,1,0.8523295000013604,603899,001,2024-09-10_15h50.41.620,staircase,2024.1.5,None,2024-09-10 15h50.46.868226 +0530,
45,0.5,1.0,51.76021369999944,,51.74439220000022,51.76021369999944,52.26028849999966,52.26028849999966,52.26028849999966,52.55962729999919,52.760194700000284,right,1.0,1,1,0.495293899999524,603899,001,2024-09-10_15h50.41.620,staircase,2024.1.5,None,2024-09-10 15h50.46.868226 +0530,
46,0.5,1.0,52.77654520000033,,52.76025800000025,52.77654520000033,53.26064419999966,53.26064419999966,53.27671849999933,53.55960699999923,53.82808959999966,right,1.0,1,1,0.5571077000004152,603899,001,2024-09-10_15h50.41.620,staircase,2024.1.5,None,2024-09-10 15h50.46.868226 +0530,
47,0.5,1.0,53.84376460000021,,53.82815699999992,53.84376460000021,54.343334799999866,54.343334799999866,54.343334799999866,54.64367189999939,55.077122799999415,right,1.0,1,1,0.7284002999986114,603899,001,2024-09-10_15h50.41.620,staircase,2024.1.5,None,2024-09-10 15h50.46.868226 +0530,
48,0.5,1.0,55.093551100000695,,55.07718650000061,55.093551100000695,55.57661030000054,55.57661030000054,55.59317310000006,55.876232900000105,56.07726919999914,right,1.0,1,1,0.49017079999975977,603899,001,2024-09-10_15h50.41.620,staircase,2024.1.5,None,2024-09-10 15h50.46.868226 +0530,
49,0.5,1.0,56.09289920000083,,56.07733129999906,56.09289920000083,56.57630690000042,56.57630690000042,56.5929959999994,56.876725300000544,57.26089689999935,right,1.0,1,1,0.6750367000004189,603899,001,2024-09-10_15h50.41.620,staircase,2024.1.5,None,2024-09-10 15h50.46.868226 +0530,
50,0.5,1.0,57.27625889999945,,57.26096619999953,57.27625889999945,57.77670699999908,57.77670699999908,57.77670699999908,58.076657600000544,58.610655399999814,right,1.0,1,1,0.8251934999989317,603899,001,2024-09-10_15h50.41.620,staircase,2024.1.5,None,2024-09-10 15h50.46.868226 +0530,
51,0.5,1.0,58.626710900000035,,58.61072799999965,58.626710900000035,59.110715299999356,59.110715299999356,59.12649539999984,59.409558900000775,59.810786899999584,left,-1.0,1,1,0.6950111999994988,603899,001,2024-09-10_15h50.41.620,staircase,2024.1.5,None,2024-09-10 15h50.46.868226 +0530,
52,0.5,1.0,59.82662100000016,,59.81085010000061,59.82662100000016,60.31004589999975,60.31004589999975,60.326778299999205,60.60951700000078,61.46073190000061,left,-1.0,0,0,1.13954030000059,603899,001,2024-09-10_15h50.41.620,staircase,2024.1.5,None,2024-09-10 15h50.46.868226 +0530,
53,0.5,1.5,61.476617300000726,,61.46079699999973,61.476617300000726,61.960125999999946,61.960125999999946,61.97634339999968,62.26054909999948,62.8443213999999,left,-1.5,0,0,0.8723609000007855,603899,001,2024-09-10_15h50.41.620,staircase,2024.1.5,None,2024-09-10 15h50.46.868226 +0530,
54,0.5,2.0,62.85959809999986,,62.84438880000016,62.85959809999986,63.34330520000003,63.34330520000003,63.35972600000059,63.643350700000155,63.82753260000027,right,2.0,1,1,0.4714849000010872,603899,001,2024-09-10_15h50.41.620,staircase,2024.1.5,None,2024-09-10 15h50.46.868226 +0530,
55,0.5,2.0,63.843380199999956,,63.827594399999725,63.843380199999956,64.32654390000062,64.32654390000062,64.34326130000045,64.62627910000083,64.96097259999988,left,-2.0,1,1,0.6189184000013483,603899,001,2024-09-10_15h50.41.620,staircase,2024.1.5,None,2024-09-10 15h50.46.868226 +0530,
56,0.5,2.0,64.9768709,,64.96103369999946,64.9768709,65.47680319999927,65.47680319999927,65.47680319999927,65.77654009999969,66.16093560000081,left,-2.0,1,1,0.6742414000000281,603899,001,2024-09-10_15h50.41.620,staircase,2024.1.5,None,2024-09-10 15h50.46.868226 +0530,
57,0.5,1.5,66.17661149999913,,66.16100129999904,66.17661149999913,66.66023599999971,66.66023599999971,66.67668779999985,66.95960070000001,67.12767340000028,left,-1.5,1,1,0.4522668999998132,603899,001,2024-09-10_15h50.41.620,staircase,2024.1.5,None,2024-09-10 15h50.46.868226 +0530,
58,0.5,1.5,67.14332800000011,,67.12773740000011,67.14332800000011,67.64324019999913,67.64324019999913,67.64324019999913,67.94332620000023,68.21053329999995,right,1.5,1,1,0.5625457000005554,603899,001,2024-09-10_15h50.41.620,staircase,2024.1.5,None,2024-09-10 15h50.46.868226 +0530,
59,0.5,1.5,68.22667759999968,,68.21059720000085,68.22667759999968,68.70965670000078,68.70965670000078,68.72659270000077,69.009951,69.74358790000042,left,-1.5,0,0,1.0291397999990295,603899,001,2024-09-10_15h50.41.620,staircase,2024.1.5,None,2024-09-10 15h50.46.868226 +0530,
60,0.5,2.0,69.75979720000032,,69.74365639999996,69.75979720000032,70.2437286000004,70.2437286000004,70.26003590000073,70.54295889999958,70.76039309999942,right,2.0,1,1,0.5101149000001897,603899,001,2024-09-10_15h50.41.620,staircase,2024.1.5,None,2024-09-10 15h50.46.868226 +0530,
61,0.5,2.0,70.7768431000004,,70.76045539999905,70.7768431000004,71.26022620000003,71.26022620000003,71.2767430999993,71.55984189999981,71.97697639999933,left,-2.0,1,1,0.7087876999994478,603899,001,2024-09-10_15h50.41.620,staircase,2024.1.5,None,2024-09-10 15h50.46.868226 +0530,
62,0.5,2.0,71.99321980000059,,71.97703999999976,71.99321980000059,72.47675019999951,72.47675019999951,72.49327400000038,72.77653119999923,73.06117900000027,right,2.0,1,1,0.5812007999993511,603899,001,2024-09-10_15h50.41.620,staircase,2024.1.5,None,2024-09-10 15h50.46.868226 +0530,
63,0.5,1.5,73.07665369999995,,73.06129499999952,73.07665369999995,73.57668489999924,73.57668489999924,73.57668489999924,73.8764615,75.14427419999993,right,1.5,1,1,1.5644179999999324,603899,001,2024-09-10_15h50.41.620,staircase,2024.1.5,None,2024-09-10 15h50.46.868226 +0530,
64,0.5,1.5,75.15953860000081,,75.1443376999996,75.15953860000081,75.65967319999982,75.65967319999982,75.65967319999982,75.95983100000012,76.27748559999964,right,1.5,1,1,0.6019106000003376,603899,001,2024-09-10_15h50.41.620,staircase,2024.1.5,None,2024-09-10 15h50.46.868226 +0530,
65,0.5,1.5,76.29321870000058,,76.27754950000053,76.29321870000058,76.77646540000023,76.77646540000023,76.79324900000029,77.07623539999986,77.44438020000052,left,-1.5,1,1,0.6605560000007245,603899,001,2024-09-10_15h50.41.620,staircase,2024.1.5,None,2024-09-10 15h50.46.868226 +0530,
66,0.5,1.0,77.45998540000073,,77.4444440999996,77.45998540000073,77.9600690999996,77.9600690999996,77.9600690999996,78.26055520000045,78.61042129999987,left,-1.0,1,1,0.6341169999996055,603899,001,2024-09-10_15h50.41.620,staircase,2024.1.5,None,2024-09-10 15h50.46.868226 +0530,
67,0.5,1.0,78.62629600000037,,78.61048300000039,78.62629600000037,79.10989549999977,79.10989549999977,79.12636720000046,79.40945719999945,79.49428559999978,right,1.0,1,1,0.37675099999978556,603899,001,2024-09-10_15h50.41.620,staircase,2024.1.5,None,2024-09-10 15h50.46.868226 +0530,
68,0.5,1.0,79.51035170000068,,79.49434809999912,79.51035170000068,79.99313860000075,79.99313860000075,80.00961900000038,80.29308850000052,80.5103068999997,left,-1.0,0,0,0.5115272999992158,603899,001,2024-09-10_15h50.41.620,staircase,2024.1.5,None,2024-09-10 15h50.46.868226 +0530,
69,0.5,1.5,80.52642369999921,,80.51037449999967,80.52642369999921,81.00949989999935,81.00949989999935,81.02623219999987,81.30992960000003,81.46108219999951,right,1.5,1,1,0.4344201999992947,603899,001,2024-09-10_15h50.41.620,staircase,2024.1.5,None,2024-09-10 15h50.46.868226 +0530,
70,0.5,1.5,81.4762924000006,,81.46114619999935,81.4762924000006,81.97649590000037,81.97649590000037,81.97649590000037,82.27652139999918,82.39381649999996,right,1.5,1,1,0.412476900000911,603899,001,2024-09-10_15h50.41.620,staircase,2024.1.5,None,2024-09-10 15h50.46.868226 +0530,
71,0.5,1.5,82.4097927999992,,82.39388119999967,82.4097927999992,82.90992220000044,82.90992220000044,82.90992220000044,83.20968720000019,83.4104341000002,right,1.5,1,1,0.4930316000009043,603899,001,2024-09-10_15h50.41.620,staircase,2024.1.5,None,2024-09-10 15h50.46.868226 +0530,
72,0.5,1.0,83.42615809999916,,83.41050080000059,83.42615809999916,83.9104043999996,83.9104043999996,83.92698659999951,84.21017249999932,84.36077049999949,right,1.0,1,1,0.44651840000005905,603899,001,2024-09-10_15h50.41.620,staircase,2024.1.5,None,2024-09-10 15h50.46.868226 +0530,
73,0.5,1.0,84.37679430000026,,84.36083420000068,84.37679430000026,84.85997320000024,84.85997320000024,84.87669859999914,85.16009119999944,85.39406299999973,left,-1.0,1,1,0.5324476999994658,603899,001,2024-09-10_15h50.41.620,staircase,2024.1.5,None,2024-09-10 15h50.46.868226 +0530,
74,0.5,1.0,85.40948509999907,,85.39412620000076,85.40948509999907,85.90976039999987,85.90976039999987,85.90976039999987,86.20984490000046,86.3772358999995,right,1.0,1,1,0.4593444999991334,603899,001,2024-09-10_15h50.41.620,staircase,2024.1.5,None,2024-09-10 15h50.46.868226 +0530,
75,0.5,1.0,86.39284840000073,,86.37730039999951,86.39284840000073,86.87623150000036,86.87623150000036,86.89353180000035,87.17677809999986,87.49368399999912,left,-1.0,1,1,0.6113564999996015,603899,001,2024-09-10_15h50.41.620,staircase,2024.1.5,None,2024-09-10 15h50.46.868226 +0530,
76,0.5,1.0,87.50951639999948,,87.49374829999942,87.50951639999948,87.99286570000004,87.99286570000004,88.00964980000026,88.2932810000002,88.69372420000036,left,-1.0,1,1,0.6864261999999144,603899,001,2024-09-10_15h50.41.620,staircase,2024.1.5,None,2024-09-10 15h50.46.868226 +0530,
77,0.5,1.0,88.70960009999908,,88.69378549999965,88.70960009999908,89.19321400000081,89.19321400000081,89.20974019999994,89.49272869999913,89.67671759999939,right,1.0,1,1,0.47795119999864255,603899,001,2024-09-10_15h50.41.620,staircase,2024.1.5,None,2024-09-10 15h50.46.868226 +0530,
78,0.5,1.0,89.69363169999997,,89.67678049999995,89.69363169999997,90.17656890000035,90.17656890000035,90.19352599999911,90.47655719999966,90.94443510000019,left,-1.0,1,1,0.7643122000008589,603899,001,2024-09-10_15h50.41.620,staircase,2024.1.5,None,2024-09-10 15h50.46.868226 +0530,
79,0.5,1.0,90.95986749999975,,90.94449770000028,90.95986749999975,91.4599507999992,91.4599507999992,91.4599507999992,91.7594525000004,91.86003979999987,right,1.0,1,1,0.38605480000114767,603899,001,2024-09-10_15h50.41.620,staircase,2024.1.5,None,2024-09-10 15h50.46.868226 +0530,
80,0.5,1.0,91.87629360000028,,91.86010279999937,91.87629360000028,92.35955599999943,92.35955599999943,92.37628939999922,92.66015750000042,92.91096990000005,left,-1.0,1,1,0.5445319000009476,603899,001,2024-09-10_15h50.41.620,staircase,2024.1.5,None,2024-09-10 15h50.46.868226 +0530,
81,0.5,1.0,92.92627390000052,,92.91103579999981,92.92627390000052,93.42621719999988,93.42621719999988,93.42621719999988,93.72644000000037,94.36092830000052,right,1.0,0,0,0.9220645999994304,603899,001,2024-09-10_15h50.41.620,staircase,2024.1.5,None,2024-09-10 15h50.46.868226 +0530,
82,0.5,1.5,94.37637080000059,,94.36099379999905,94.37637080000059,94.87608929999988,94.87608929999988,94.87608929999988,95.17609400000038,95.34377719999975,right,1.5,1,1,0.46541769999930693,603899,001,2024-09-10_15h50.41.620,staircase,2024.1.5,None,2024-09-10 15h50.46.868226 +0530,
83,0.5,1.5,95.35990610000044,,95.34384060000048,95.35990610000044,95.84329160000016,95.84329160000016,95.85974100000021,96.14306679999936,96.49353940000037,right,1.5,1,1,0.6474070999993273,603899,001,2024-09-10_15h50.41.620,staircase,2024.1.5,None,2024-09-10 15h50.46.868226 +0530,
84,0.5,1.5,96.50974970000061,,96.49360379999962,96.50974970000061,96.99315779999961,96.99315779999961,97.01004210000065,97.29323459999978,97.54471439999907,left,-1.5,1,1,0.5499429999999847,603899,001,2024-09-10_15h50.41.620,staircase,2024.1.5,None,2024-09-10 15h50.46.868226 +0530,
85,0.5,1.0,97.55964200000017,,97.54478890000064,97.55964200000017,98.05951509999977,98.05951509999977,98.05951509999977,98.35989379999955,98.76060200000029,left,-1.0,1,1,0.6891728999999032,603899,001,2024-09-10_15h50.41.620,staircase,2024.1.5,None,2024-09-10 15h50.46.868226 +0530,
86,0.5,1.0,98.7760672000004,,98.76066469999932,98.7760672000004,99.27654849999999,99.27654849999999,99.27654849999999,99.57700529999966,100.09395819999918,left,-1.0,1,1,0.8067225000013423,603899,001,2024-09-10_15h50.41.620,staircase,2024.1.5,None,2024-09-10 15h50.46.868226 +0530,
87,0.5,1.0,100.1097647000006,,100.09402039999986,100.1097647000006,100.60985000000073,100.60985000000073,100.60985000000073,100.90990079999938,103.47745100000066,right,1.0,1,1,2.8508891999990738,603899,001,2024-09-10_15h50.41.620,staircase,2024.1.5,None,2024-09-10 15h50.46.868226 +0530,
88,0.5,1.0,103.49337159999959,,103.47751860000062,103.49337159999959,103.97654350000084,103.97654350000084,103.99332700000014,104.27594280000085,106.01015799999914,left,-1.0,1,1,2.018647899998541,603899,001,2024-09-10_15h50.41.620,staircase,2024.1.5,None,2024-09-10 15h50.46.868226 +0530,
89,0.5,1.0,106.0259960000003,,106.0102263000008,106.0259960000003,106.50978849999956,106.50978849999956,106.52614519999952,106.80976249999912,107.36044980000042,right,1.0,0,0,0.8432835000003251,603899,001,2024-09-10_15h50.41.620,staircase,2024.1.5,None,2024-09-10 15h50.46.868226 +0530,
90,0.5,1.5,107.37642090000008,,107.36051520000001,107.37642090000008,107.86002559999906,107.86002559999906,107.87639979999949,108.1593539000005,108.52713149999909,right,1.5,1,1,0.6658313999996608,603899,001,2024-09-10_15h50.41.620,staircase,2024.1.5,None,2024-09-10 15h50.46.868226 +0530,
91,0.5,1.5,108.54319670000041,,108.5271945000004,108.54319670000041,109.04307379999955,109.04307379999955,109.04307379999955,109.3434230999992,109.69352319999962,left,-1.5,1,1,0.6401181999990513,603899,001,2024-09-10_15h50.41.620,staircase,2024.1.5,None,2024-09-10 15h50.46.868226 +0530,
92,0.5,1.5,109.70945009999923,,109.69358629999988,109.70945009999923,110.19310039999982,110.19310039999982,110.20953129999907,110.49320810000063,110.7603137999995,left,-1.5,1,1,0.5627117000003636,603899,001,2024-09-10_15h50.41.620,staircase,2024.1.5,None,2024-09-10 15h50.46.868226 +0530,
93,0.5,1.0,110.77627589999975,,110.76038030000018,110.77627589999975,111.26052840000011,111.26052840000011,111.27648559999943,111.57634990000042,112.96058769999945,right,1.0,1,1,1.6918203000004723,603899,001,2024-09-10_15h50.41.620,staircase,2024.1.5,None,2024-09-10 15h50.46.868226 +0530,
94,0.5,1.0,112.97599579999951,,112.96065090000047,112.97599579999951,113.4762881000006,113.4762881000006,113.4762881000006,113.77603920000001,114.71069709999938,left,-1.0,1,1,1.2297808000002988,603899,001,2024-09-10_15h50.41.620,staircase,2024.1.5,None,2024-09-10 15h50.46.868226 +0530,
95,0.5,1.0,114.72641169999952,,114.71075930000006,114.72641169999952,115.20946000000004,115.20946000000004,115.22606509999969,115.51016019999952,115.97696619999988,left,-1.0,1,1,0.7549653000005492,603899,001,2024-09-10_15h50.41.620,staircase,2024.1.5,None,2024-09-10 15h50.46.868226 +0530,
96,0.5,1.0,115.99301240000023,,115.97703139999976,115.99301240000023,116.47641010000007,116.47641010000007,116.49295700000039,116.77659449999919,116.92699189999985,right,1.0,1,1,0.44505670000035025,603899,001,2024-09-10_15h50.41.620,staircase,2024.1.5,None,2024-09-10 15h50.46.868226 +0530,
97,0.5,1.0,116.94324880000022,,116.92705720000049,116.94324880000022,117.44298899999922,117.44298899999922,117.44298899999922,117.74268669999947,118.27737770000022,right,1.0,1,1,0.8258597999993071,603899,001,2024-09-10_15h50.41.620,staircase,2024.1.5,None,2024-09-10 15h50.46.868226 +0530,
98,0.5,1.0,118.2930596999995,,118.27744109999912,118.2930596999995,118.79278669999985,118.79278669999985,118.79278669999985,119.09266430000025,120.09409500000038,left,-1.0,0,0,1.297051499999725,603899,001,2024-09-10_15h50.41.620,staircase,2024.1.5,None,2024-09-10 15h50.46.868226 +0530,
99,0.5,1.5,120.10925800000041,,120.09416149999925,120.10925800000041,120.59305239999958,120.59305239999958,120.60991099999956,120.89272039999923,121.69396489999963,left,-1.5,1,1,1.0877627999998367,603899,001,2024-09-10_15h50.41.620,staircase,2024.1.5,None,2024-09-10 15h50.46.868226 +0530,
