reward_today,future_reward,delay,trials.thisRepN,trials.thisTrialN,trials.thisN,trials.thisIndex,thisRow.t,notes,trial.started,fixation.started,text.started,key_resp.started,fixation.stopped,trial.stopped,key_resp.keys,key_resp.rt,key_resp.duration,participant,session,date,expName,psychopyVersion,frameRate,expStart,
27,50,21,0,0,0,2,0.13050579999980982,,0.027264500000455882,0.13050579999980982,1.013724500000535,1.013724500000535,1.1304909999998927,1.5785585000003266,l,0.5125560999995287,None,p4,001,2024-11-21_17h43.50.963,delay discounting,2024.1.5,None,2024-11-21 17h44.02.306354 +0530,
11,30,7,0,1,1,0,1.597668899999917,,1.581461599999784,1.597668899999917,2.5807677000002514,2.5807677000002514,2.5973326000003,2.9822716999997283,t,0.3967699000004359,None,p4,001,2024-11-21_17h43.50.963,delay discounting,2024.1.5,None,2024-11-21 17h44.02.306354 +0530,
49,60,89,0,2,2,4,3.0022932000001674,,2.983379199999945,3.0022932000001674,3.985787900000105,3.985787900000105,4.002559499999734,4.904276199999913,l,0.9018240999994305,None,p4,001,2024-11-21_17h43.50.963,delay discounting,2024.1.5,None,2024-11-21 17h44.02.306354 +0530,
78,80,162,0,3,3,6,4.918697000000066,,4.9053804000004675,4.918697000000066,5.918948600000476,5.918948600000476,5.918948600000476,6.737411799999791,t,0.8013155999997252,None,p4,001,2024-11-21_17h43.50.963,delay discounting,2024.1.5,None,2024-11-21 17h44.02.306354 +0530,
40,55,62,0,4,4,3,6.752101900000525,,6.738654499999939,6.752101900000525,7.752329300000383,7.752329300000383,7.752329300000383,10.738451799999893,l,2.9805734999999913,None,p4,001,2024-11-21_17h43.50.963,delay discounting,2024.1.5,None,2024-11-21 17h44.02.306354 +0530,
67,75,119,0,5,5,5,10.752587900000435,,10.739657699999952,10.752587900000435,11.75226290000046,11.75226290000046,11.75226290000046,12.80427520000012,t,1.0427542000006724,None,p4,001,2024-11-21_17h43.50.963,delay discounting,2024.1.5,None,2024-11-21 17h44.02.306354 +0530,
15,35,13,0,6,6,1,12.818994700000076,,12.805402500000127,12.818994700000076,13.819027700000333,13.819027700000333,13.819027700000333,15.18769489999977,l,1.355664099999558,None,p4,001,2024-11-21_17h43.50.963,delay discounting,2024.1.5,None,2024-11-21 17h44.02.306354 +0530,
11,30,7,1,0,7,0,15.202187099999719,,15.188786200000322,15.202187099999719,16.202024700000038,16.202024700000038,16.202024700000038,17.087539099999958,l,0.8736076000004687,None,p4,001,2024-11-21_17h43.50.963,delay discounting,2024.1.5,None,2024-11-21 17h44.02.306354 +0530,
67,75,119,1,1,8,5,17.102156699999796,,17.088615200000277,17.102156699999796,18.10216279999986,18.10216279999986,18.10216279999986,19.004462900000362,t,0.8933744999994815,None,p4,001,2024-11-21_17h43.50.963,delay discounting,2024.1.5,None,2024-11-21 17h44.02.306354 +0530,
15,35,13,1,2,9,1,19.019248499999776,,19.005591000000095,19.019248499999776,20.0189091000002,20.0189091000002,20.0189091000002,21.887372300000607,l,1.8631986000000325,None,p4,001,2024-11-21_17h43.50.963,delay discounting,2024.1.5,None,2024-11-21 17h44.02.306354 +0530,
49,60,89,1,3,10,4,21.90207680000003,,21.888483499999893,21.90207680000003,22.902495600000293,22.902495600000293,22.902495600000293,24.054901000000427,t,1.150236099999347,None,p4,001,2024-11-21_17h43.50.963,delay discounting,2024.1.5,None,2024-11-21 17h44.02.306354 +0530,
78,80,162,1,4,11,6,24.068723999999747,,24.05599919999986,24.068723999999747,25.06914719999986,25.06914719999986,25.06914719999986,26.404180700000325,t,1.326978699999927,None,p4,001,2024-11-21_17h43.50.963,delay discounting,2024.1.5,None,2024-11-21 17h44.02.306354 +0530,
27,50,21,1,5,12,2,26.418630900000608,,26.405274499999905,26.418630900000608,27.41886930000055,27.41886930000055,27.41886930000055,29.437524900000426,t,2.015685699999267,None,p4,001,2024-11-21_17h43.50.963,delay discounting,2024.1.5,None,2024-11-21 17h44.02.306354 +0530,
40,55,62,1,6,13,3,29.452041499999723,,29.43886939999993,29.452041499999723,30.452166199999738,30.452166199999738,30.452166199999738,31.7871925999998,l,1.3263449000005494,None,p4,001,2024-11-21_17h43.50.963,delay discounting,2024.1.5,None,2024-11-21 17h44.02.306354 +0530,
15,35,13,2,0,14,1,31.802201200000127,,31.788261499999862,31.802201200000127,32.80210679999982,32.80210679999982,32.80210679999982,33.954558700000234,t,1.1478819000003568,None,p4,001,2024-11-21_17h43.50.963,delay discounting,2024.1.5,None,2024-11-21 17h44.02.306354 +0530,
11,30,7,2,1,15,0,33.96890660000008,,33.95562620000055,33.96890660000008,34.96875120000004,34.96875120000004,34.96875120000004,36.020484800000304,l,1.0413023000000976,None,p4,001,2024-11-21_17h43.50.963,delay discounting,2024.1.5,None,2024-11-21 17h44.02.306354 +0530,
67,75,119,2,2,16,5,36.035463100000015,,36.02154350000001,36.035463100000015,37.03570310000032,37.03570310000032,37.03570310000032,40.9875849,t,3.9413183999995454,None,p4,001,2024-11-21_17h43.50.963,delay discounting,2024.1.5,None,2024-11-21 17h44.02.306354 +0530,
27,50,21,2,3,17,2,41.002805300000546,,40.988659700000426,41.002805300000546,42.00248920000013,42.00248920000013,42.00248920000013,43.388147700000445,l,1.381194200000209,None,p4,001,2024-11-21_17h43.50.963,delay discounting,2024.1.5,None,2024-11-21 17h44.02.306354 +0530,
78,80,162,2,4,18,6,43.40203139999994,,43.38920020000023,43.40203139999994,44.40217970000049,44.40217970000049,44.40217970000049,45.603739199999836,t,1.189487999999983,None,p4,001,2024-11-21_17h43.50.963,delay discounting,2024.1.5,None,2024-11-21 17h44.02.306354 +0530,
49,60,89,2,5,19,4,45.61878070000057,,45.604800900000555,45.61878070000057,46.61888960000033,46.61888960000033,46.61888960000033,47.9207277000005,t,1.294843700000456,None,p4,001,2024-11-21_17h43.50.963,delay discounting,2024.1.5,None,2024-11-21 17h44.02.306354 +0530,
40,55,62,2,6,20,3,47.9352415000003,,47.92190339999979,47.9352415000003,48.93558310000026,48.93558310000026,48.93558310000026,50.32039470000018,t,1.3700568999993266,None,p4,001,2024-11-21_17h43.50.963,delay discounting,2024.1.5,None,2024-11-21 17h44.02.306354 +0530,
40,55,62,3,0,21,3,50.33553800000027,,50.321466399999736,50.33553800000027,51.33552560000044,51.33552560000044,51.33552560000044,52.55405239999982,l,1.21592260000034,None,p4,001,2024-11-21_17h43.50.963,delay discounting,2024.1.5,None,2024-11-21 17h44.02.306354 +0530,
49,60,89,3,1,22,4,52.56863270000031,,52.555161000000226,52.56863270000031,53.568799700000454,53.568799700000454,53.568799700000454,55.05370110000058,t,1.467595999999503,None,p4,001,2024-11-21_17h43.50.963,delay discounting,2024.1.5,None,2024-11-21 17h44.02.306354 +0530,
15,35,13,3,2,23,1,55.0686781000004,,55.0547532999999,55.0686781000004,56.06870919999983,56.06870919999983,56.06870919999983,56.970410200000515,l,0.8885535999997956,None,p4,001,2024-11-21_17h43.50.963,delay discounting,2024.1.5,None,2024-11-21 17h44.02.306354 +0530,
78,80,162,3,3,24,6,56.98540990000038,,56.97152619999997,56.98540990000038,57.985387300000184,57.985387300000184,57.985387300000184,58.37078250000013,t,0.3816338000005999,None,p4,001,2024-11-21_17h43.50.963,delay discounting,2024.1.5,None,2024-11-21 17h44.02.306354 +0530,
27,50,21,3,4,25,2,58.385273800000505,,58.37185049999971,58.385273800000505,59.38554010000007,59.38554010000007,59.38554010000007,59.937360900000385,t,0.5352124999999432,None,p4,001,2024-11-21_17h43.50.963,delay discounting,2024.1.5,None,2024-11-21 17h44.02.306354 +0530,
11,30,7,3,5,26,0,59.95203320000019,,59.93843670000024,59.95203320000019,60.952082700000574,60.952082700000574,60.952082700000574,63.754943699999785,t,2.7850859999998647,None,p4,001,2024-11-21_17h43.50.963,delay discounting,2024.1.5,None,2024-11-21 17h44.02.306354 +0530,
67,75,119,3,6,27,5,63.7686690999999,,63.75605869999981,63.7686690999999,64.76870640000016,64.76870640000016,64.76870640000016,68.75374069999998,l,3.969131699999707,None,p4,001,2024-11-21_17h43.50.963,delay discounting,2024.1.5,None,2024-11-21 17h44.02.306354 +0530,
11,30,7,4,0,28,0,68.76856490000046,,68.75480470000002,68.76856490000046,69.76875930000006,69.76875930000006,69.76875930000006,70.30349530000058,t,0.5203955999995742,None,p4,001,2024-11-21_17h43.50.963,delay discounting,2024.1.5,None,2024-11-21 17h44.02.306354 +0530,
27,50,21,4,1,29,2,70.31859059999988,,70.30455170000005,70.31859059999988,71.31877420000001,71.31877420000001,71.31877420000001,71.7037319000001,l,0.37783629999921686,None,p4,001,2024-11-21_17h43.50.963,delay discounting,2024.1.5,None,2024-11-21 17h44.02.306354 +0530,
40,55,62,4,2,30,3,71.71862729999975,,71.70491159999983,71.71862729999975,72.71878740000011,72.71878740000011,72.71878740000011,75.2732130000004,t,2.5528494999998657,None,p4,001,2024-11-21_17h43.50.963,delay discounting,2024.1.5,None,2024-11-21 17h44.02.306354 +0530,
78,80,162,4,3,31,6,75.30498280000029,,75.27386540000043,75.30498280000029,76.2881083000002,76.2881083000002,76.30470729999979,77.74050590000024,t,1.4502701999999772,None,p4,001,2024-11-21_17h43.50.963,delay discounting,2024.1.5,None,2024-11-21 17h44.02.306354 +0530,
15,35,13,4,4,32,1,77.75491280000006,,77.74159370000052,77.75491280000006,78.7547870999997,78.7547870999997,78.7547870999997,79.89110900000014,l,1.132806999999957,None,p4,001,2024-11-21_17h43.50.963,delay discounting,2024.1.5,None,2024-11-21 17h44.02.306354 +0530,
67,75,119,4,5,33,5,79.91868169999998,,79.89258010000049,79.91868169999998,80.90207030000056,80.90207030000056,80.91895279999972,83.27034550000008,t,2.3523968999998033,None,p4,001,2024-11-21_17h43.50.963,delay discounting,2024.1.5,None,2024-11-21 17h44.02.306354 +0530,
49,60,89,4,6,34,4,83.28534110000055,,83.27146989999983,83.28534110000055,84.28553079999983,84.28553079999983,84.28553079999983,86.67021310000018,l,2.369855799999641,None,p4,001,2024-11-21_17h43.50.963,delay discounting,2024.1.5,None,2024-11-21 17h44.02.306354 +0530,
78,80,162,5,0,35,6,86.68528190000052,,86.67126950000056,86.68528190000052,87.68533860000025,87.68533860000025,87.68533860000025,88.88745449999988,t,1.1866874000006646,None,p4,001,2024-11-21_17h43.50.963,delay discounting,2024.1.5,None,2024-11-21 17h44.02.306354 +0530,
11,30,7,5,1,36,0,88.90194960000008,,88.8885465000003,88.90194960000008,89.9023202999997,89.9023202999997,89.9023202999997,90.50405099999989,l,0.5872269999999844,None,p4,001,2024-11-21_17h43.50.963,delay discounting,2024.1.5,None,2024-11-21 17h44.02.306354 +0530,
15,35,13,5,2,37,1,90.51857759999984,,90.50510200000008,90.51857759999984,91.51869350000015,91.51869350000015,91.51869350000015,92.40448840000045,t,0.8792712999993455,None,p4,001,2024-11-21_17h43.50.963,delay discounting,2024.1.5,None,2024-11-21 17h44.02.306354 +0530,
67,75,119,5,3,38,5,92.41861250000056,,92.40557470000022,92.41861250000056,93.41889319999973,93.41889319999973,93.41889319999973,95.82134560000031,t,2.400347000000693,None,p4,001,2024-11-21_17h43.50.963,delay discounting,2024.1.5,None,2024-11-21 17h44.02.306354 +0530,
40,55,62,5,4,39,3,95.83515640000041,,95.82245609999973,95.83515640000041,96.83561590000045,96.83561590000045,96.83561590000045,99.18720810000013,t,2.3431221000000733,None,p4,001,2024-11-21_17h43.50.963,delay discounting,2024.1.5,None,2024-11-21 17h44.02.306354 +0530,
27,50,21,5,5,40,2,99.20212689999971,,99.18830390000039,99.20212689999971,100.20187050000004,100.20187050000004,100.20187050000004,101.93718630000058,l,1.719819599999937,None,p4,001,2024-11-21_17h43.50.963,delay discounting,2024.1.5,None,2024-11-21 17h44.02.306354 +0530,
49,60,89,5,6,41,4,101.95183460000044,,101.93823429999975,101.95183460000044,102.95211670000026,102.95211670000026,102.95211670000026,105.2369061999998,l,2.2678761999995913,None,p4,001,2024-11-21_17h43.50.963,delay discounting,2024.1.5,None,2024-11-21 17h44.02.306354 +0530,
40,55,62,6,0,42,3,105.25196500000038,,105.23797350000041,105.25196500000038,106.25195619999977,106.25195619999977,106.25195619999977,107.87088690000019,t,1.6014537999999447,None,p4,001,2024-11-21_17h43.50.963,delay discounting,2024.1.5,None,2024-11-21 17h44.02.306354 +0530,
67,75,119,6,1,43,5,107.8851709999999,,107.87194369999997,107.8851709999999,108.88546790000055,108.88546790000055,108.88546790000055,110.42141989999982,t,1.5310058999993998,None,p4,001,2024-11-21_17h43.50.963,delay discounting,2024.1.5,None,2024-11-21 17h44.02.306354 +0530,
27,50,21,6,2,44,2,110.43555900000047,,110.42249970000012,110.43555900000047,111.43515089999983,111.43515089999983,111.43515089999983,112.55346129999998,l,1.1110033999993902,None,p4,001,2024-11-21_17h43.50.963,delay discounting,2024.1.5,None,2024-11-21 17h44.02.306354 +0530,
11,30,7,6,3,45,0,112.56849969999985,,112.55452640000021,112.56849969999985,113.56874979999975,113.56874979999975,113.56874979999975,115.13685200000054,l,1.5572816000003513,None,p4,001,2024-11-21_17h43.50.963,delay discounting,2024.1.5,None,2024-11-21 17h44.02.306354 +0530,
15,35,13,6,4,46,1,115.15183960000013,,115.13790719999997,115.15183960000013,116.15204350000022,116.15204350000022,116.15204350000022,118.53715170000032,l,2.3720968000006906,None,p4,001,2024-11-21_17h43.50.963,delay discounting,2024.1.5,None,2024-11-21 17h44.02.306354 +0530,
78,80,162,6,5,47,6,118.55217900000025,,118.53821890000017,118.55217900000025,119.5521404000001,119.5521404000001,119.5521404000001,121.2545012999999,t,1.6957487999998193,None,p4,001,2024-11-21_17h43.50.963,delay discounting,2024.1.5,None,2024-11-21 17h44.02.306354 +0530,
49,60,89,6,6,48,4,121.26904999999988,,121.25568000000021,121.26904999999988,122.26874940000016,122.26874940000016,122.26874940000016,124.98741400000017,t,2.701088799999525,None,p4,001,2024-11-21_17h43.50.963,delay discounting,2024.1.5,None,2024-11-21 17h44.02.306354 +0530,
15,35,13,7,0,49,1,125.0018856000006,,124.98852609999994,125.0018856000006,126.00194300000021,126.00194300000021,126.00194300000021,128.27030980000018,l,2.252624300000207,None,p4,001,2024-11-21_17h43.50.963,delay discounting,2024.1.5,None,2024-11-21 17h44.02.306354 +0530,
49,60,89,7,1,50,4,128.28537469999992,,128.27143070000056,128.28537469999992,129.31048250000003,129.31048250000003,129.31048250000003,133.69554450000032,l,4.382885600000009,None,p4,001,2024-11-21_17h43.50.963,delay discounting,2024.1.5,None,2024-11-21 17h44.02.306354 +0530,
78,80,162,7,2,51,6,133.71010339999975,,133.6966567999998,133.71010339999975,134.7018909999997,134.7018909999997,134.71850510000058,135.95402830000057,t,1.2439725000003818,None,p4,001,2024-11-21_17h43.50.963,delay discounting,2024.1.5,None,2024-11-21 17h44.02.306354 +0530,
27,50,21,7,3,52,2,135.96851340000012,,135.95523240000057,135.96851340000012,136.96859779999977,136.96859779999977,136.96859779999977,138.28751340000053,l,1.316162300000542,None,p4,001,2024-11-21_17h43.50.963,delay discounting,2024.1.5,None,2024-11-21 17h44.02.306354 +0530,
40,55,62,7,4,53,3,138.3017593000004,,138.28857400000015,138.3017593000004,139.30182349999995,139.30182349999995,139.30182349999995,140.97058590000051,l,1.6571903000003658,None,p4,001,2024-11-21_17h43.50.963,delay discounting,2024.1.5,None,2024-11-21 17h44.02.306354 +0530,
67,75,119,7,5,54,5,140.9852335000005,,140.9716623000004,140.9852335000005,141.98520699999972,141.98520699999972,141.98520699999972,144.38698490000024,t,2.3913887999997314,None,p4,001,2024-11-21_17h43.50.963,delay discounting,2024.1.5,None,2024-11-21 17h44.02.306354 +0530,
11,30,7,7,6,55,0,144.40202630000022,,144.38806939999995,144.40202630000022,145.40192939999997,145.40192939999997,145.40192939999997,147.28717310000047,l,1.8683294000002206,None,p4,001,2024-11-21_17h43.50.963,delay discounting,2024.1.5,None,2024-11-21 17h44.02.306354 +0530,
40,55,62,8,0,56,3,147.3017649000003,,147.28858690000015,147.3017649000003,148.30187360000036,148.30187360000036,148.30187360000036,150.9702629000003,l,2.6568984000005003,None,p4,001,2024-11-21_17h43.50.963,delay discounting,2024.1.5,None,2024-11-21 17h44.02.306354 +0530,
11,30,7,8,1,57,0,150.98539410000012,,150.9714410000006,150.98539410000012,151.98540090000006,151.98540090000006,151.98540090000006,154.15376689999994,t,2.15454359999967,None,p4,001,2024-11-21_17h43.50.963,delay discounting,2024.1.5,None,2024-11-21 17h44.02.306354 +0530,
78,80,162,8,2,58,6,154.16850729999987,,154.15485080000053,154.16850729999987,155.16862860000037,155.16862860000037,155.16862860000037,157.10283810000055,t,1.9291903000003003,None,p4,001,2024-11-21_17h43.50.963,delay discounting,2024.1.5,None,2024-11-21 17h44.02.306354 +0530,
67,75,119,8,3,59,5,157.11846049999986,,157.10348799999974,157.11846049999986,158.1185374000006,158.1185374000006,158.1185374000006,160.72093190000032,t,2.584938400000283,None,p4,001,2024-11-21_17h43.50.963,delay discounting,2024.1.5,None,2024-11-21 17h44.02.306354 +0530,
27,50,21,8,4,60,2,160.73529690000032,,160.72203040000022,160.73529690000032,161.7355120000002,161.7355120000002,161.7355120000002,163.7703760000004,l,2.0177389000000403,None,p4,001,2024-11-21_17h43.50.963,delay discounting,2024.1.5,None,2024-11-21 17h44.02.306354 +0530,
15,35,13,8,5,61,1,163.78488889999971,,163.77145759999985,163.78488889999971,164.78614819999984,164.78614819999984,164.78614819999984,166.18703300000016,t,1.3921596999998656,None,p4,001,2024-11-21_17h43.50.963,delay discounting,2024.1.5,None,2024-11-21 17h44.02.306354 +0530,
49,60,89,8,6,62,4,166.20172999999977,,166.18811189999997,166.20172999999977,167.2020037000002,167.2020037000002,167.2020037000002,168.78759880000052,l,1.5694100999999137,None,p4,001,2024-11-21_17h43.50.963,delay discounting,2024.1.5,None,2024-11-21 17h44.02.306354 +0530,
40,55,62,9,0,63,3,168.80180440000004,,168.78873420000036,168.80180440000004,169.8018990999999,169.8018990999999,169.8018990999999,171.02193979999993,t,1.214034300000094,None,p4,001,2024-11-21_17h43.50.963,delay discounting,2024.1.5,None,2024-11-21 17h44.02.306354 +0530,
49,60,89,9,1,64,4,171.03585070000008,,171.02321230000052,171.03585070000008,172.03568050000013,172.03568050000013,172.03568050000013,172.2373561000004,l,0.18858780000027764,None,p4,001,2024-11-21_17h43.50.963,delay discounting,2024.1.5,None,2024-11-21 17h44.02.306354 +0530,
11,30,7,9,2,65,0,172.25226620000012,,172.23844180000015,172.25226620000012,173.25266530000044,173.25266530000044,173.25266530000044,173.53731719999996,l,0.27780470000016066,None,p4,001,2024-11-21_17h43.50.963,delay discounting,2024.1.5,None,2024-11-21 17h44.02.306354 +0530,
15,35,13,9,3,66,1,173.5522007999998,,173.5384243999997,173.5522007999998,174.55231600000025,174.55231600000025,174.55231600000025,176.32071020000058,l,1.7589673000002222,None,p4,001,2024-11-21_17h43.50.963,delay discounting,2024.1.5,None,2024-11-21 17h44.02.306354 +0530,
27,50,21,9,4,67,2,176.33561559999998,,176.32176880000043,176.33561559999998,177.3356217999999,177.3356217999999,177.3356217999999,183.65424340000027,l,6.3024865000006685,None,p4,001,2024-11-21_17h43.50.963,delay discounting,2024.1.5,None,2024-11-21 17h44.02.306354 +0530,
78,80,162,9,5,68,6,183.66906180000024,,183.65531610000016,183.66906180000024,184.66909300000043,184.66909300000043,184.66909300000043,188.6886955,t,4.012286600000152,None,p4,001,2024-11-21_17h43.50.963,delay discounting,2024.1.5,None,2024-11-21 17h44.02.306354 +0530,
67,75,119,9,6,69,5,188.7023197999997,,188.68993539999974,188.7023197999997,189.70241129999977,189.70241129999977,189.70241129999977,195.00439069999993,t,5.287927099999251,None,p4,001,2024-11-21_17h43.50.963,delay discounting,2024.1.5,None,2024-11-21 17h44.02.306354 +0530,
15,35,13,10,0,70,1,195.01965850000033,,195.00551429999996,195.01965850000033,196.01965990000008,196.01965990000008,196.01965990000008,215.8053289999998,t,19.776622400000633,None,p4,001,2024-11-21_17h43.50.963,delay discounting,2024.1.5,None,2024-11-21 17h44.02.306354 +0530,
49,60,89,10,1,71,4,215.8198241,,215.80648010000004,215.8198241,216.8196699,216.8196699,216.8196699,217.47121930000048,l,0.6417830999998841,None,p4,001,2024-11-21_17h43.50.963,delay discounting,2024.1.5,None,2024-11-21 17h44.02.306354 +0530,
27,50,21,10,2,72,2,217.48634050000055,,217.47230060000038,217.48634050000055,218.48616020000009,218.48616020000009,218.48616020000009,219.2712803000004,l,0.7676115000003847,None,p4,001,2024-11-21_17h43.50.963,delay discounting,2024.1.5,None,2024-11-21 17h44.02.306354 +0530,
11,30,7,10,3,73,0,219.28629439999986,,219.2723403,219.28629439999986,220.28675459999977,220.28675459999977,220.28675459999977,222.68837460000032,l,2.398829400000068,None,p4,001,2024-11-21_17h43.50.963,delay discounting,2024.1.5,None,2024-11-21 17h44.02.306354 +0530,
78,80,162,10,4,74,6,222.70280640000055,,222.68946349999987,222.70280640000055,223.7030824000003,223.7030824000003,223.7030824000003,227.82139350000034,t,4.1078758999992715,None,p4,001,2024-11-21_17h43.50.963,delay discounting,2024.1.5,None,2024-11-21 17h44.02.306354 +0530,
67,75,119,10,5,75,5,227.83614829999988,,227.82246339999983,227.83614829999988,228.83628080000017,228.83628080000017,228.83628080000017,231.40455310000016,t,2.5568692000006195,None,p4,001,2024-11-21_17h43.50.963,delay discounting,2024.1.5,None,2024-11-21 17h44.02.306354 +0530,
40,55,62,10,6,76,3,231.4194711,,231.40562790000058,231.4194711,232.4196694000002,232.4196694000002,232.4196694000002,234.7377249000001,t,2.3117174999997587,None,p4,001,2024-11-21_17h43.50.963,delay discounting,2024.1.5,None,2024-11-21 17h44.02.306354 +0530,
27,50,21,11,0,77,2,234.75274160000026,,234.73882240000057,234.75274160000026,235.75315409999985,235.75315409999985,235.75315409999985,241.67255530000057,t,5.907890100000259,None,p4,001,2024-11-21_17h43.50.963,delay discounting,2024.1.5,None,2024-11-21 17h44.02.306354 +0530,
40,55,62,11,1,78,3,241.6865054,,241.67362860000048,241.6865054,242.68643659999998,242.68643659999998,242.68643659999998,247.30442459999995,t,4.608597100000225,None,p4,001,2024-11-21_17h43.50.963,delay discounting,2024.1.5,None,2024-11-21 17h44.02.306354 +0530,
78,80,162,11,2,79,6,247.31948120000015,,247.30550070000027,247.31948120000015,248.31976000000031,248.31976000000031,248.31976000000031,248.72087800000008,l,0.3875006000007488,None,p4,001,2024-11-21_17h43.50.963,delay discounting,2024.1.5,None,2024-11-21 17h44.02.306354 +0530,
67,75,119,11,3,80,5,248.73617560000002,,248.7219199000001,248.73617560000002,249.73616800000036,249.73616800000036,249.73616800000036,250.58784550000018,t,0.8355652000000191,None,p4,001,2024-11-21_17h43.50.963,delay discounting,2024.1.5,None,2024-11-21 17h44.02.306354 +0530,
49,60,89,11,4,81,4,250.6027453000006,,250.58899930000007,250.6027453000006,251.60274339999978,251.60274339999978,251.60274339999978,251.9383373999999,t,0.3316537000000608,None,p4,001,2024-11-21_17h43.50.963,delay discounting,2024.1.5,None,2024-11-21 17h44.02.306354 +0530,
15,35,13,11,5,82,1,251.95292059999974,,251.9395370000002,251.95292059999974,252.9530493000002,252.9530493000002,252.9530493000002,253.27198920000046,l,0.30805529999997816,None,p4,001,2024-11-21_17h43.50.963,delay discounting,2024.1.5,None,2024-11-21 17h44.02.306354 +0530,
11,30,7,11,6,83,0,253.28675420000036,,253.2733115000001,253.28675420000036,254.28647900000033,254.28647900000033,254.28647900000033,255.8886763999999,t,1.5980822000001353,None,p4,001,2024-11-21_17h43.50.963,delay discounting,2024.1.5,None,2024-11-21 17h44.02.306354 +0530,
78,80,162,12,0,84,6,255.90302470000006,,255.88977520000026,255.90302470000006,256.9032093000005,256.9032093000005,256.9032093000005,259.12270869999975,l,2.2144154999996317,None,p4,001,2024-11-21_17h43.50.963,delay discounting,2024.1.5,None,2024-11-21 17h44.02.306354 +0530,
15,35,13,12,1,85,1,259.1374166000005,,259.1238119999998,259.1374166000005,260.13655560000007,260.13655560000007,260.13655560000007,268.5380277000004,t,8.384084600000278,None,p4,001,2024-11-21_17h43.50.963,delay discounting,2024.1.5,None,2024-11-21 17h44.02.306354 +0530,
27,50,21,12,2,86,2,268.55315919999975,,268.5390894000002,268.55315919999975,269.55321860000004,269.55321860000004,269.55321860000004,277.8553302,t,8.299744799999644,None,p4,001,2024-11-21_17h43.50.963,delay discounting,2024.1.5,None,2024-11-21 17h44.02.306354 +0530,
11,30,7,12,3,87,0,277.87112760000036,,277.8565140999999,277.87112760000036,278.8698452999997,278.8698452999997,278.88667280000027,280.68904569999995,l,1.812388700000156,None,p4,001,2024-11-21_17h43.50.963,delay discounting,2024.1.5,None,2024-11-21 17h44.02.306354 +0530,
40,55,62,12,4,88,3,280.70308399999976,,280.69023300000026,280.70308399999976,281.70310640000025,281.70310640000025,281.70310640000025,285.30540199999996,t,3.5919119000000137,None,p4,001,2024-11-21_17h43.50.963,delay discounting,2024.1.5,None,2024-11-21 17h44.02.306354 +0530,
49,60,89,12,5,89,4,285.3200659000004,,285.3064819000001,285.3200659000004,286.31981199999973,286.31981199999973,286.31981199999973,287.50607409999975,l,1.1837815999997474,None,p4,001,2024-11-21_17h43.50.963,delay discounting,2024.1.5,None,2024-11-21 17h44.02.306354 +0530,
67,75,119,12,6,90,5,287.51969780000036,,287.5071810999998,287.51969780000036,288.51978099999997,288.51978099999997,288.51978099999997,289.85550710000007,l,1.3248733999998876,None,p4,001,2024-11-21_17h43.50.963,delay discounting,2024.1.5,None,2024-11-21 17h44.02.306354 +0530,
27,50,21,13,0,91,2,289.8706995000002,,289.8566013999998,289.8706995000002,290.86973820000003,290.86973820000003,290.8862575000003,291.48747040000035,t,0.6113483999997698,None,p4,001,2024-11-21_17h43.50.963,delay discounting,2024.1.5,None,2024-11-21 17h44.02.306354 +0530,
49,60,89,13,1,92,4,291.5030077000001,,291.4881494000001,291.5030077000001,292.50327930000003,292.50327930000003,292.50327930000003,292.871932,l,0.3541883999996571,None,p4,001,2024-11-21_17h43.50.963,delay discounting,2024.1.5,None,2024-11-21 17h44.02.306354 +0530,
40,55,62,13,2,93,3,292.8867424,,292.8730224000001,292.8867424,293.88673240000026,293.88673240000026,293.88673240000026,297.50463300000047,t,3.6056411000008666,None,p4,001,2024-11-21_17h43.50.963,delay discounting,2024.1.5,None,2024-11-21 17h44.02.306354 +0530,
15,35,13,13,3,94,1,297.5198218000005,,297.50568120000025,297.5198218000005,298.51997519999986,298.51997519999986,298.51997519999986,299.13841330000014,l,0.6059799000004205,None,p4,001,2024-11-21_17h43.50.963,delay discounting,2024.1.5,None,2024-11-21 17h44.02.306354 +0530,
67,75,119,13,4,95,5,299.1533847999999,,299.1394631000003,299.1533847999999,300.1530407,300.1530407,300.1530407,303.10603830000036,t,2.9471737000003486,None,p4,001,2024-11-21_17h43.50.963,delay discounting,2024.1.5,None,2024-11-21 17h44.02.306354 +0530,
78,80,162,13,5,96,6,303.1204023999999,,303.10715470000014,303.1204023999999,304.11976740000046,304.11976740000046,304.11976740000046,305.0047120999998,t,0.8721246999994037,None,p4,001,2024-11-21_17h43.50.963,delay discounting,2024.1.5,None,2024-11-21 17h44.02.306354 +0530,
11,30,7,13,6,97,0,305.0200136000003,,305.00577020000037,305.0200136000003,306.02003630000036,306.02003630000036,306.02003630000036,307.1385747000004,l,1.1084689999997863,None,p4,001,2024-11-21_17h43.50.963,delay discounting,2024.1.5,None,2024-11-21 17h44.02.306354 +0530,
