study_word,test_word,trials.thisRepN,trials.thisTrialN,trials.thisN,trials.thisIndex,trials_2.thisRepN,trials_2.thisTrialN,trials_2.thisN,trials_2.thisIndex,thisRow.t,notes,Study_Phase.started,StudyText.started,Studyslider.started,Study_Phase.stopped,Studyslider.response,Studyslider.rt,Test_Phase.started,TestText.started,test_textbox.started,submit.started,testmouse.started,Test_Phase.stopped,test_textbox.text,testmouse.x,testmouse.y,testmouse.leftButton,testmouse.midButton,testmouse.rightButton,testmouse.time,testmouse.clicked_name,TestText.stopped,participant,session,date,expName,psychopyVersion,frameRate,expStart,
chart,,0,0,0,6,,,,,0.07225239998660982,,0.03957969998009503,0.07225239998660982,0.07225239998660982,1.8727530999458395,1.011111111111111,1.8102946999715641,,,,,,,,,,,,,,,,111,001,2024-10-25_11h29.24.369,untitled,2024.1.5,None,2024-10-25 11h29.33.707577 +0530,
cruise,,0,1,1,11,,,,,1.8923851999570616,,1.8740262999781407,1.8923851999570616,1.8923851999570616,2.879389799956698,1.9333333333333333,0.9823695000377484,,,,,,,,,,,,,,,,111,001,2024-10-25_11h29.24.369,untitled,2024.1.5,None,2024-10-25 11h29.33.707577 +0530,
board,,0,2,2,4,,,,,2.8980772999930196,,2.8796267999568954,2.8980772999930196,2.8980772999930196,3.890391599969007,1,0.989720200013835,,,,,,,,,,,,,,,,111,001,2024-10-25_11h29.24.369,untitled,2024.1.5,None,2024-10-25 11h29.33.707577 +0530,
book,,0,3,3,0,,,,,3.9077351999585517,,3.890622099977918,3.9077351999585517,3.9077351999585517,4.811498199997004,2.0037037037037035,0.8987239999696612,,,,,,,,,,,,,,,,111,001,2024-10-25_11h29.24.369,untitled,2024.1.5,None,2024-10-25 11h29.33.707577 +0530,
mouse,,0,4,4,8,,,,,4.829848699970171,,4.811737899959553,4.829848699970171,4.829848699970171,6.199788099969737,1.0666666666666667,1.3673629999975674,,,,,,,,,,,,,,,,111,001,2024-10-25_11h29.24.369,untitled,2024.1.5,None,2024-10-25 11h29.33.707577 +0530,
police,,0,5,5,12,,,,,6.220040799991693,,6.200024199963082,6.220040799991693,6.220040799991693,6.989679499994963,1.1037037037037036,0.7678407999919727,,,,,,,,,,,,,,,,111,001,2024-10-25_11h29.24.369,untitled,2024.1.5,None,2024-10-25 11h29.33.707577 +0530,
pastry,,0,6,6,9,,,,,7.010110899980646,,6.989939599996433,7.010110899980646,7.010110899980646,7.680203099967912,1.1037037037037036,0.6670641000382602,,,,,,,,,,,,,,,,111,001,2024-10-25_11h29.24.369,untitled,2024.1.5,None,2024-10-25 11h29.33.707577 +0530,
case,,0,7,7,10,,,,,7.698247199994512,,7.680436599999666,7.698247199994512,7.698247199994512,8.334472699963953,1.1037037037037036,0.6333728999597952,,,,,,,,,,,,,,,,111,001,2024-10-25_11h29.24.369,untitled,2024.1.5,None,2024-10-25 11h29.33.707577 +0530,
marble,,0,8,8,3,,,,,8.351603099959902,,8.334711099974811,8.351603099959902,8.351603099959902,9.504423299978953,1.7481481481481482,1.1485363999963738,,,,,,,,,,,,,,,,111,001,2024-10-25_11h29.24.369,untitled,2024.1.5,None,2024-10-25 11h29.33.707577 +0530,
T-shirt,,0,9,9,7,,,,,9.523462599958293,,9.50465149997035,9.523462599958293,9.523462599958293,10.959845599951223,1.0333333333333334,1.4327852000133134,,,,,,,,,,,,,,,,111,001,2024-10-25_11h29.24.369,untitled,2024.1.5,None,2024-10-25 11h29.33.707577 +0530,
phone,,0,10,10,2,,,,,10.979484499956015,,10.960075699957088,10.979484499956015,10.979484499956015,12.04909249994671,1.9,1.0679021999821998,,,,,,,,,,,,,,,,111,001,2024-10-25_11h29.24.369,untitled,2024.1.5,None,2024-10-25 11h29.33.707577 +0530,
laptop,,0,11,11,5,,,,,12.068055199983064,,12.049328699999023,12.068055199983064,12.068055199983064,13.055160799995065,1.0740740740740742,0.9837849999894388,,,,,,,,,,,,,,,,111,001,2024-10-25_11h29.24.369,untitled,2024.1.5,None,2024-10-25 11h29.33.707577 +0530,
keys,,0,12,12,13,,,,,13.073072699946351,,13.055393599963281,13.073072699946351,13.073072699946351,14.092951799975708,1.8888888888888888,1.0159370000474155,,,,,,,,,,,,,,,,111,001,2024-10-25_11h29.24.369,untitled,2024.1.5,None,2024-10-25 11h29.33.707577 +0530,
poster,,0,13,13,14,,,,,14.110333499964327,,14.093190899991896,14.110333499964327,14.110333499964327,14.96364899998298,1.2703703703703704,0.8483880999847315,,,,,,,,,,,,,,,,111,001,2024-10-25_11h29.24.369,untitled,2024.1.5,None,2024-10-25 11h29.33.707577 +0530,
cushion,,0,14,14,1,,,,,14.98223699996015,,14.96387879998656,14.98223699996015,14.98223699996015,15.636287799978163,1.2703703703703704,0.6506327000097372,,,,,,,,,,,,,,,,111,001,2024-10-25_11h29.24.369,untitled,2024.1.5,None,2024-10-25 11h29.33.707577 +0530,
,c_m_ra,,,,,0,0,0,19,15.651692699990235,,,,,,,,15.639027099998202,15.651692699990235,15.651692699990235,15.651692699990235,0.0053601000108756125,23.9114076999831,camera,[-0.05648148148148148],[-0.29814814814814816],[1],[0],[0],[8.26913390000118],['submit'],,111,001,2024-10-25_11h29.24.369,untitled,2024.1.5,None,2024-10-25 11h29.33.707577 +0530,
,c_s_,,,,,0,1,1,10,23.925467999943066,,,,,,,,23.912249699991662,23.925467999943066,23.925467999943066,23.925467999943066,0.0017491000471636653,27.9109582999954,case,[0.023148148148148147],[-0.3111111111111111],[1],[0],[0],[3.996658699994441],['submit'],,111,001,2024-10-25_11h29.24.369,untitled,2024.1.5,None,2024-10-25 11h29.33.707577 +0530,
,_ha_t,,,,,0,2,2,6,27.92583589995047,,,,,,,,27.91146039997693,27.92583589995047,27.92583589995047,27.92583589995047,0.0017421000520698726,31.838013499975204,chart,[0.0712962962962963],[-0.30462962962962964],[1],[0],[0],[3.9243984000058845],['submit'],,111,001,2024-10-25_11h29.24.369,untitled,2024.1.5,None,2024-10-25 11h29.33.707577 +0530,
,_ou_e,,,,,0,3,3,8,31.85361659998307,,,,,,,,31.83852409996325,31.85361659998307,31.85361659998307,31.85361659998307,0.0017413999885320663,38.84226679999847,house,[0.041666666666666664],[-0.3037037037037037],[1],[0],[0],[7.001453000004403],['submit'],,111,001,2024-10-25_11h29.24.369,untitled,2024.1.5,None,2024-10-25 11h29.33.707577 +0530,
,l_pt_p,,,,,0,4,4,5,38.853712799958885,,,,,,,,38.84276819997467,38.853712799958885,38.853712799958885,38.853712799958885,0.0018696000333875418,42.48854069999652,laptop,[0.041666666666666664],[-0.3037037037037037],[1],[0],[0],[3.643504000036046],['submit'],,111,001,2024-10-25_11h29.24.369,untitled,2024.1.5,None,2024-10-25 11h29.33.707577 +0530,
,_a_ble,,,,,0,5,5,3,42.504007099953014,,,,,,,,42.48907499999041,42.504007099953014,42.504007099953014,42.504007099953014,0.0020265000057406723,46.03846579999663,marble,[0.03518518518518519],[-0.3148148148148148],[1],[0],[0],[3.547037000011187],['submit'],,111,001,2024-10-25_11h29.24.369,untitled,2024.1.5,None,2024-10-25 11h29.33.707577 +0530,
,_oo_,,,,,0,6,6,0,46.05342169996584,,,,,,,,46.038971499947365,46.05342169996584,46.05342169996584,46.05342169996584,0.001589599996805191,50.070793299993966,look,[0.040740740740740744],[-0.31203703703703706],[1],[0],[0],[4.029870700032916],['submit'],,111,001,2024-10-25_11h29.24.369,untitled,2024.1.5,None,2024-10-25 11h29.33.707577 +0530,
,p_st_y,,,,,0,7,7,9,50.08690979995299,,,,,,,,50.07133819995215,50.08690979995299,50.08690979995299,50.08690979995299,0.0018167999805882573,56.47210349998204,pasrty,[0.03981481481481482],[-0.3148148148148148],[1],[0],[0],[6.398616900027264],['submit'],,111,001,2024-10-25_11h29.24.369,untitled,2024.1.5,None,2024-10-25 11h29.33.707577 +0530,
,p_st_r,,,,,0,8,8,14,56.48651279998012,,,,,,,,56.47260529996129,56.48651279998012,56.48651279998012,56.48651279998012,0.0017642999882809818,63.52279959997395,postor,[0.032407407407407406],[-0.3148148148148148],[1],[0],[0],[7.048102900036611],['submit'],,111,001,2024-10-25_11h29.24.369,untitled,2024.1.5,None,2024-10-25 11h29.33.707577 +0530,
,_r_is_,,,,,0,9,9,11,63.53649559995392,,,,,,,,63.52330239996081,63.53649559995392,63.53649559995392,63.53649559995392,0.001891799969598651,67.18876149994321,cruise,[0.032407407407407406],[-0.3148148148148148],[1],[0],[0],[3.6630738999811],['submit'],,111,001,2024-10-25_11h29.24.369,untitled,2024.1.5,None,2024-10-25 11h29.33.707577 +0530,
,bo_t_e,,,,,0,10,10,18,67.20323019998614,,,,,,,,67.18928609997965,67.20323019998614,67.20323019998614,67.20323019998614,0.0017476000357419252,74.93770539999241,bottle,[0.026851851851851852],[-0.31574074074074077],[1],[0],[0],[7.746119899966288],['submit'],,111,001,2024-10-25_11h29.24.369,untitled,2024.1.5,None,2024-10-25 11h29.33.707577 +0530,
,p_nc_l,,,,,0,11,11,16,74.95333019999089,,,,,,,,74.93830299994443,74.95333019999089,74.95333019999089,74.95333019999089,0.001755499979481101,79.32126209995477,pencil,[0.03611111111111111],[-0.3148148148148148],[1],[0],[0],[4.380861800047569],['submit'],,111,001,2024-10-25_11h29.24.369,untitled,2024.1.5,None,2024-10-25 11h29.33.707577 +0530,
,ta_l_,,,,,0,12,12,15,79.33695799997076,,,,,,,,79.32176069996785,79.33695799997076,79.33695799997076,79.33695799997076,0.0017404000391252339,87.06015019997722,lable,[0.05092592592592592],[-0.31296296296296294],[1],[0],[0],[7.736079399997834],['submit'],,111,001,2024-10-25_11h29.24.369,untitled,2024.1.5,None,2024-10-25 11h29.33.707577 +0530,
,v_s_,,,,,0,13,13,17,87.10069529997418,,,,,,,,87.06064989999868,87.10069529997418,87.10069529997418,87.10069529997418,0.0172189999721013,95.05223939998541,vase,[0.08981481481481482],[-0.30462962962962964],[1],[0],[0],[7.973969699989539],['submit'],,111,001,2024-10-25_11h29.24.369,untitled,2024.1.5,None,2024-10-25 11h29.33.707577 +0530,
,_ho_e,,,,,0,14,14,2,95.0672496999614,,,,,,,,95.0527873999672,95.0672496999614,95.0672496999614,95.0672496999614,0.0019019999890588224,101.78604799997993,whole,[0.11481481481481481],[-0.30092592592592593],[1],[0],[0],[6.731008499977179],['submit'],,111,001,2024-10-25_11h29.24.369,untitled,2024.1.5,None,2024-10-25 11h29.33.707577 +0530,
,_o_rd,,,,,0,15,15,4,101.80117069999687,,,,,,,,101.78654719999759,101.80117069999687,101.80117069999687,101.80117069999687,0.0017407999839633703,113.43761249998352,board,[0.11851851851851852],[-0.3148148148148148],[1],[0],[0],[11.64862059999723],['submit'],111.80336159997387,111,001,2024-10-25_11h29.24.369,untitled,2024.1.5,None,2024-10-25 11h29.33.707577 +0530,
,p_li_e,,,,,0,16,16,12,113.45294369995827,,,,,,,,113.43810869997833,113.45294369995827,113.45294369995827,113.45294369995827,0.0019576000049710274,117.0374539999757,police,[0.11851851851851852],[-0.3148148148148148],[1],[0],[0],[3.5970161000150256],['submit'],,111,001,2024-10-25_11h29.24.369,untitled,2024.1.5,None,2024-10-25 11h29.33.707577 +0530,
,c_s_io_,,,,,0,17,17,1,117.0528727999772,,,,,,,,117.03795419994276,117.0528727999772,117.0528727999772,117.0528727999772,0.0017721999902278185,127.20596209994983,cushion,[0.07037037037037037],[-0.2962962962962963],[1],[0],[0],[10.165766199992504],['submit'],127.0526864999556,111,001,2024-10-25_11h29.24.369,untitled,2024.1.5,None,2024-10-25 11h29.33.707577 +0530,
,t_hi_t,,,,,0,18,18,7,127.21941819996573,,,,,,,,127.20649039995624,127.21941819996573,127.21941819996573,127.21941819996573,0.0023070000461302698,140.79044259997318,tshirt,[-0.011111111111111112],[-0.29907407407407405],[1],[0],[0],[13.581270100024994],['submit'],137.22795380000025,111,001,2024-10-25_11h29.24.369,untitled,2024.1.5,None,2024-10-25 11h29.33.707577 +0530,
,k_y_,,,,,0,19,19,13,140.80561979999766,,,,,,,,140.79109469999094,140.80561979999766,140.80561979999766,140.80561979999766,0.001725299982354045,146.72400999994716,"
keys",[-0.004629629629629629],[-0.30462962962962964],[1],[0],[0],[5.930962299986277],['submit'],,111,001,2024-10-25_11h29.24.369,untitled,2024.1.5,None,2024-10-25 11h29.33.707577 +0530,
