study_word,test_word,trials.thisRepN,trials.thisTrialN,trials.thisN,trials.thisIndex,trials_2.thisRepN,trials_2.thisTrialN,trials_2.thisN,trials_2.thisIndex,thisRow.t,notes,Study_Phase.started,StudyText.started,Studyslider.started,Study_Phase.stopped,Studyslider.response,Studyslider.rt,Test_Phase.started,TestText.started,test_textbox.started,submit.started,testmouse.started,TestText.stopped,Test_Phase.stopped,test_textbox.text,testmouse.x,testmouse.y,testmouse.leftButton,testmouse.midButton,testmouse.rightButton,testmouse.time,testmouse.clicked_name,participant,session,date,expName,psychopyVersion,frameRate,expStart,
T-shirt,,0,0,0,7,,,,,0.06307789997663349,,0.03108679997967556,0.06307789997663349,0.06307789997663349,2.7211349999997765,1.0,2.666685000003781,,,,,,,,,,,,,,,,112,001,2024-10-25_11h41.17.760,untitled,2024.1.5,None,2024-10-25 11h41.26.895915 +0530,
pastry,,0,1,1,9,,,,,2.74375239998335,,2.7225815000128932,2.74375239998335,2.74375239998335,4.482939200010151,3.0592592592592593,1.7350774999940768,,,,,,,,,,,,,,,,112,001,2024-10-25_11h41.17.760,untitled,2024.1.5,None,2024-10-25 11h41.26.895915 +0530,
book,,0,2,2,0,,,,,4.5096177000086755,,4.483177699963562,4.5096177000086755,4.5096177000086755,7.257152399979532,2.0074074074074075,2.752004800015129,,,,,,,,,,,,,,,,112,001,2024-10-25_11h41.17.760,untitled,2024.1.5,None,2024-10-25 11h41.26.895915 +0530,
laptop,,0,3,3,5,,,,,7.284414099995047,,7.257390399987344,7.284414099995047,7.284414099995047,9.205453199974727,1,1.9253178999642842,,,,,,,,,,,,,,,,112,001,2024-10-25_11h41.17.760,untitled,2024.1.5,None,2024-10-25 11h41.26.895915 +0530,
keys,,0,4,4,13,,,,,9.24281590001192,,9.205691799987108,9.24281590001192,9.24281590001192,10.857725500012748,2.4962962962962965,1.6141070000012405,,,,,,,,,,,,,,,,112,001,2024-10-25_11h41.17.760,untitled,2024.1.5,None,2024-10-25 11h41.26.895915 +0530,
police,,0,5,5,12,,,,,10.884285899985116,,10.857959799992386,10.884285899985116,10.884285899985116,12.872152699972503,1,1.9916432999889366,,,,,,,,,,,,,,,,112,001,2024-10-25_11h41.17.760,untitled,2024.1.5,None,2024-10-25 11h41.26.895915 +0530,
phone,,0,6,6,2,,,,,12.891561999975238,,12.872401100001298,12.891561999975238,12.891561999975238,14.827911400003359,1.9555555555555555,1.9336088999989443,,,,,,,,,,,,,,,,112,001,2024-10-25_11h41.17.760,untitled,2024.1.5,None,2024-10-25 11h41.26.895915 +0530,
cruise,,0,7,7,11,,,,,14.845669900008943,,14.82815469999332,14.845669900008943,14.845669900008943,17.15323359996546,4.014814814814815,2.303893500007689,,,,,,,,,,,,,,,,112,001,2024-10-25_11h41.17.760,untitled,2024.1.5,None,2024-10-25 11h41.26.895915 +0530,
case,,0,8,8,10,,,,,17.171742699982133,,17.153468000004068,17.171742699982133,17.171742699982133,18.69157299998915,2.511111111111111,1.5164159999694675,,,,,,,,,,,,,,,,112,001,2024-10-25_11h41.17.760,untitled,2024.1.5,None,2024-10-25 11h41.26.895915 +0530,
cushion,,0,9,9,1,,,,,18.709744699997827,,18.691821400017943,18.709744699997827,18.709744699997827,21.862893100013025,4.707407407407407,3.150806999998167,,,,,,,,,,,,,,,,112,001,2024-10-25_11h41.17.760,untitled,2024.1.5,None,2024-10-25 11h41.26.895915 +0530,
chart,,0,10,10,6,,,,,21.88090970000485,,21.863130400015507,21.88090970000485,21.88090970000485,23.767267999995966,2.085185185185185,1.883329300035257,,,,,,,,,,,,,,,,112,001,2024-10-25_11h41.17.760,untitled,2024.1.5,None,2024-10-25 11h41.26.895915 +0530,
mouse,,0,11,11,8,,,,,23.786208599980455,,23.76750409998931,23.786208599980455,23.786208599980455,26.151126899989322,1.048148148148148,2.361711500037927,,,,,,,,,,,,,,,,112,001,2024-10-25_11h41.17.760,untitled,2024.1.5,None,2024-10-25 11h41.26.895915 +0530,
board,,0,12,12,4,,,,,26.17759500001557,,26.151390200015157,26.17759500001557,26.17759500001557,27.364116600016132,1.6962962962962962,1.1890208999975584,,,,,,,,,,,,,,,,112,001,2024-10-25_11h41.17.760,untitled,2024.1.5,None,2024-10-25 11h41.26.895915 +0530,
poster,,0,13,13,14,,,,,27.382074399967678,,27.364376100013033,27.382074399967678,27.382074399967678,28.65241139999125,2.6148148148148147,1.2663178999791853,,,,,,,,,,,,,,,,112,001,2024-10-25_11h41.17.760,untitled,2024.1.5,None,2024-10-25 11h41.26.895915 +0530,
marble,,0,14,14,3,,,,,28.671454900002573,,28.6526523999637,28.671454900002573,28.671454900002573,30.40780479996465,2.014814814814815,1.7349659000174142,,,,,,,,,,,,,,,,112,001,2024-10-25_11h41.17.760,untitled,2024.1.5,None,2024-10-25 11h41.26.895915 +0530,
,p_li_e,,,,,0,0,0,12,30.426665399980266,,,,,,,,30.411327600013465,30.426665399980266,30.426665399980266,30.426665399980266,0.006267899996601045,40.42928819998633,40.863912699976936,police,[-0.09259259259259259],[-0.3148148148148148],[1],[0],[0],[10.449210799997672],['submit'],112,001,2024-10-25_11h41.17.760,untitled,2024.1.5,None,2024-10-25 11h41.26.895915 +0530,
,k_y_,,,,,0,1,1,13,40.87942529999418,,,,,,,,40.86473649996333,40.87942529999418,40.87942529999418,40.87942529999418,0.0017847000272013247,,44.74624040001072,keys,[-0.06388888888888888],[-0.2953703703703704],[1],[0],[0],[3.8793253999901935],['submit'],112,001,2024-10-25_11h41.17.760,untitled,2024.1.5,None,2024-10-25 11h41.26.895915 +0530,
,_a_ble,,,,,0,2,2,3,44.762215499999,,,,,,,,44.746780499990564,44.762215499999,44.762215499999,44.762215499999,0.0018322999821975827,,48.931097199965734,marble,[-0.08055555555555556],[-0.29907407407407405],[1],[0],[0],[4.182055500044953],['submit'],112,001,2024-10-25_11h41.17.760,untitled,2024.1.5,None,2024-10-25 11h41.26.895915 +0530,
,_ha_t,,,,,0,3,3,6,48.94606909999857,,,,,,,,48.93170700001065,48.94606909999857,48.94606909999857,48.94606909999857,0.0019425999489612877,,54.34791589999804,chast,[0.08055555555555556],[-0.2972222222222222],[1],[0],[0],[5.413926900015213],['submit'],112,001,2024-10-25_11h41.17.760,untitled,2024.1.5,None,2024-10-25 11h41.26.895915 +0530,
,_ho_e,,,,,0,4,4,2,54.36273709998932,,,,,,,,54.34841929998947,54.36273709998932,54.36273709998932,54.36273709998932,0.0019292000215500593,,61.11398389999522,shoes,[0.07777777777777778],[-0.30925925925925923],[1],[0],[0],[6.763252500037197],['submit'],112,001,2024-10-25_11h41.17.760,untitled,2024.1.5,None,2024-10-25 11h41.26.895915 +0530,
,_r_is_,,,,,0,5,5,11,61.12947250000434,,,,,,,,61.114530799968634,61.12947250000434,61.12947250000434,61.12947250000434,0.0019903999636881053,,67.33065660001012,crisis,[-0.026851851851851852],[-0.3055555555555556],[1],[0],[0],[6.213824199978262],['submit'],112,001,2024-10-25_11h41.17.760,untitled,2024.1.5,None,2024-10-25 11h41.26.895915 +0530,
,t_hi_t,,,,,0,6,6,7,67.34609289997024,,,,,,,,67.3311864999705,67.34609289997024,67.34609289997024,67.34609289997024,0.0021889000199735165,,70.9807461000164,tshirt,[-0.03981481481481482],[-0.30462962962962964],[1],[0],[0],[3.647044299985282],['submit'],112,001,2024-10-25_11h41.17.760,untitled,2024.1.5,None,2024-10-25 11h41.26.895915 +0530,
,p_st_y,,,,,0,7,7,9,70.99585999996634,,,,,,,,70.98125589999836,70.99585999996634,70.99585999996634,70.99585999996634,0.001815199968405068,,74.74787059996743,pastry,[-0.03611111111111111],[-0.3111111111111111],[1],[0],[0],[3.7644467999925837],['submit'],112,001,2024-10-25_11h41.17.760,untitled,2024.1.5,None,2024-10-25 11h41.26.895915 +0530,
,p_st_r,,,,,0,8,8,14,74.76264839997748,,,,,,,,74.7483769999817,74.76264839997748,74.76264839997748,74.76264839997748,0.0018143000197596848,,78.68065900000511,pastor,[-0.03611111111111111],[-0.3111111111111111],[1],[0],[0],[3.9301041000289842],['submit'],112,001,2024-10-25_11h41.17.760,untitled,2024.1.5,None,2024-10-25 11h41.26.895915 +0530,
,c_s_io_,,,,,0,9,9,1,78.69606639997801,,,,,,,,78.68117009999696,78.69606639997801,78.69606639997801,78.69606639997801,0.0019921999773941934,,82.49703620001674,cushion,[-0.03611111111111111],[-0.3111111111111111],[1],[0],[0],[3.8135353999678046],['submit'],112,001,2024-10-25_11h41.17.760,untitled,2024.1.5,None,2024-10-25 11h41.26.895915 +0530,
,c_m_ra,,,,,0,10,10,19,82.51295219996246,,,,,,,,82.49755169998389,82.51295219996246,82.51295219996246,82.51295219996246,0.001820300007238984,,86.60171339998487,camera,[-0.03611111111111111],[-0.3111111111111111],[1],[0],[0],[4.101854500011541],['submit'],112,001,2024-10-25_11h41.17.760,untitled,2024.1.5,None,2024-10-25 11h41.26.895915 +0530,
,v_s_,,,,,0,11,11,17,86.61684239999158,,,,,,,,86.60222329996759,86.61684239999158,86.61684239999158,86.61684239999158,0.002824300026986748,,89.80226500000572,vast,[-0.03611111111111111],[-0.3111111111111111],[1],[0],[0],[3.196771200047806],['submit'],112,001,2024-10-25_11h41.17.760,untitled,2024.1.5,None,2024-10-25 11h41.26.895915 +0530,
,_ou_e,,,,,0,12,12,8,89.81690579996211,,,,,,,,89.8031640999834,89.81690579996211,89.81690579996211,89.81690579996211,0.002023400040343404,,96.31901360000484,mouse,[-0.03611111111111111],[-0.3111111111111111],[1],[0],[0],[6.513571999967098],['submit'],112,001,2024-10-25_11h41.17.760,untitled,2024.1.5,None,2024-10-25 11h41.26.895915 +0530,
,ta_l_,,,,,0,13,13,15,96.333521499997,,,,,,,,96.31953460001387,96.333521499997,96.333521499997,96.333521499997,0.0020188000053167343,,101.7680758999777,tatle,[0.014814814814814815],[-0.29907407407407405],[1],[0],[0],[5.44605510000838],['submit'],112,001,2024-10-25_11h41.17.760,untitled,2024.1.5,None,2024-10-25 11h41.26.895915 +0530,
,p_nc_l,,,,,0,14,14,16,101.78344480000669,,,,,,,,101.76871659996687,101.78344480000669,101.78344480000669,101.78344480000669,0.0019126999541185796,,104.71820180001669,pencil,[0.014814814814814815],[-0.29907407407407405],[1],[0],[0],[2.947220899979584],['submit'],112,001,2024-10-25_11h41.17.760,untitled,2024.1.5,None,2024-10-25 11h41.26.895915 +0530,
,c_s_,,,,,0,15,15,10,104.73357609997038,,,,,,,,104.71871149999788,104.73357609997038,104.73357609997038,104.73357609997038,0.001644900010433048,,107.83614929998294,case,[0.014814814814814815],[-0.29907407407407405],[1],[0],[0],[3.115302900027018],['submit'],112,001,2024-10-25_11h41.17.760,untitled,2024.1.5,None,2024-10-25 11h41.26.895915 +0530,
,bo_t_e,,,,,0,16,16,18,107.85005920002004,,,,,,,,107.83667809999315,107.85005920002004,107.85005920002004,107.85005920002004,0.001955099985934794,,111.20234029996209,bottle,[0.014814814814814815],[-0.29907407407407405],[1],[0],[0],[3.3633432000060566],['submit'],112,001,2024-10-25_11h41.17.760,untitled,2024.1.5,None,2024-10-25 11h41.26.895915 +0530,
,l_pt_p,,,,,0,17,17,5,111.21689460001653,,,,,,,,111.20285190001596,111.21689460001653,111.21689460001653,111.21689460001653,0.0019322999869473279,,114.56805040000472,laptop,[0.014814814814814815],[-0.29907407407407405],[1],[0],[0],[3.3628820999874733],['submit'],112,001,2024-10-25_11h41.17.760,untitled,2024.1.5,None,2024-10-25 11h41.26.895915 +0530,
,_o_rd,,,,,0,18,18,4,114.58362769999076,,,,,,,,114.56855709996307,114.58362769999076,114.58362769999076,114.58362769999076,0.002132900001015514,,119.79011439997703,board,[0.014814814814814815],[-0.29907407407407405],[1],[0],[0],[5.2190485000028275],['submit'],112,001,2024-10-25_11h41.17.760,untitled,2024.1.5,None,2024-10-25 11h41.26.895915 +0530,
,_oo_,,,,,0,19,19,0,119.80584769998677,,,,,,,,119.79063190001762,119.80584769998677,119.80584769998677,119.80584769998677,0.00167269998928532,,122.80736460001208,look,[0.03611111111111111],[-0.3074074074074074],[1],[0],[0],[3.0146586999762803],['submit'],112,001,2024-10-25_11h41.17.760,untitled,2024.1.5,None,2024-10-25 11h41.26.895915 +0530,
