pos,corr_resp,trials.thisRepN,trials.thisTrialN,trials.thisN,trials.thisIndex,trials_2.thisRepN,trials_2.thisTrialN,trials_2.thisN,trials_2.thisIndex,thisRow.t,notes,trial.started,fixation.started,line1.started,line2.started,line3.started,line4.started,fixation.stopped,probe.started,key_resp.started,trial.stopped,key_resp.keys,key_resp.corr,key_resp.rt,key_resp.duration,participant,session,date,expName,psychopyVersion,frameRate,expStart,
-50,x,0,0,0,0,,,,,0.025993299670517445,,0.0119739999063313,0.025993299670517445,1.0086702997796237,1.0086702997796237,1.0086702997796237,1.0086702997796237,1.0253049996681511,2.0085050999186933,2.0085050999186933,3.433940399903804,x,1,1.4161921995691955,None,p1,001,2024-10-17_10h24.50.058,motor seq3,2024.1.5,None,2024-10-17 10h24.57.848072 +0530,
150,v,0,1,1,1,,,,,3.441985299810767,,3.4360302998684347,3.441985299810767,4.441880899947137,4.441880899947137,4.441880899947137,4.441880899947137,4.441880899947137,5.442266499623656,5.442266499623656,5.793296499643475,v,1,0.33535159984603524,None,p1,001,2024-10-17_10h24.50.058,motor seq3,2024.1.5,None,2024-10-17 10h24.57.848072 +0530,
50,c,0,2,2,2,,,,,5.808577599935234,,5.794123899657279,5.808577599935234,6.8085493999533355,6.8085493999533355,6.8085493999533355,6.8085493999533355,6.8085493999533355,7.808526299893856,7.808526299893856,8.193270299583673,c,1,0.38119000010192394,None,p1,001,2024-10-17_10h24.50.058,motor seq3,2024.1.5,None,2024-10-17 10h24.57.848072 +0530,
-150,z,0,3,3,3,,,,,8.20889569958672,,8.194108999799937,8.20889569958672,9.208657899871469,9.208657899871469,9.208657899871469,9.208657899871469,9.208657899871469,10.208737699780613,10.208737699780613,10.645881799980998,z,1,0.4318186999298632,None,p1,001,2024-10-17_10h24.50.058,motor seq3,2024.1.5,None,2024-10-17 10h24.57.848072 +0530,
-50,x,1,0,4,0,,,,,10.65911789983511,,10.646657599601895,10.65911789983511,11.658708199858665,11.658708199858665,11.658708199858665,11.658708199858665,11.658708199858665,12.659191899932921,12.659191899932921,13.342894099652767,x,1,0.6739558996632695,None,p1,001,2024-10-17_10h24.50.058,motor seq3,2024.1.5,None,2024-10-17 10h24.57.848072 +0530,
150,v,1,1,5,1,,,,,13.358709899708629,,13.343647699803114,13.358709899708629,14.358676699921489,14.358676699921489,14.358676699921489,14.358676699921489,14.358676699921489,15.358878499828279,15.358878499828279,15.7433324996382,v,1,0.3718849001452327,None,p1,001,2024-10-17_10h24.50.058,motor seq3,2024.1.5,None,2024-10-17 10h24.57.848072 +0530,
50,c,1,2,6,2,,,,,15.758902399800718,,15.744310299865901,15.758902399800718,16.75882099987939,16.75882099987939,16.75882099987939,16.75882099987939,16.75882099987939,17.75875429995358,17.75875429995358,18.343363899737597,c,1,0.5732983001507819,None,p1,001,2024-10-17_10h24.50.058,motor seq3,2024.1.5,None,2024-10-17 10h24.57.848072 +0530,
-150,z,1,3,7,3,,,,,18.358548399992287,,18.344171499833465,18.358548399992287,19.358531599864364,19.358531599864364,19.358531599864364,19.358531599864364,19.358531599864364,20.35920359985903,20.35920359985903,20.64381659962237,z,1,0.26834690012037754,None,p1,001,2024-10-17_10h24.50.058,motor seq3,2024.1.5,None,2024-10-17 10h24.57.848072 +0530,
-50,x,2,0,8,0,,,,,20.659020099788904,,20.644598599988967,20.659020099788904,21.658773799892515,21.658773799892515,21.658773799892515,21.658773799892515,21.658773799892515,22.656083299778402,22.656083299778402,22.95744239958003,x,1,0.28702390007674694,None,p1,001,2024-10-17_10h24.50.058,motor seq3,2024.1.5,None,2024-10-17 10h24.57.848072 +0530,
150,v,2,1,9,1,,,,,22.97276689996943,,22.958349599968642,22.97276689996943,23.972605499904603,23.972605499904603,23.972605499904603,23.972605499904603,23.972605499904603,24.972687899600714,24.972687899600714,25.523675499949604,v,1,0.5389886000193655,None,p1,001,2024-10-17_10h24.50.058,motor seq3,2024.1.5,None,2024-10-17 10h24.57.848072 +0530,
50,c,2,2,10,2,,,,,25.539324699901044,,25.524439099710435,25.539324699901044,26.539425099734217,26.539425099734217,26.539425099734217,26.539425099734217,26.539425099734217,27.53942159982398,27.53942159982398,28.424191699828953,c,1,0.8756988001987338,None,p1,001,2024-10-17_10h24.50.058,motor seq3,2024.1.5,None,2024-10-17 10h24.57.848072 +0530,
-150,z,2,3,11,3,,,,,28.43942519975826,,28.42496499978006,28.43942519975826,29.43929039966315,29.43929039966315,29.43929039966315,29.43929039966315,29.43929039966315,30.43926789984107,30.43926789984107,30.840027699712664,z,1,0.38885229965671897,None,p1,001,2024-10-17_10h24.50.058,motor seq3,2024.1.5,None,2024-10-17 10h24.57.848072 +0530,
-50,x,3,0,12,0,,,,,30.85597429983318,,30.840793199837208,30.85597429983318,31.855920999776572,31.855920999776572,31.855920999776572,31.855920999776572,31.855920999776572,32.85588329983875,32.85588329983875,33.55695299990475,x,1,0.6917848000302911,None,p1,001,2024-10-17_10h24.50.058,motor seq3,2024.1.5,None,2024-10-17 10h24.57.848072 +0530,
150,v,3,1,13,1,,,,,33.57264889962971,,33.557784599717706,33.57264889962971,34.57252539973706,34.57252539973706,34.57252539973706,34.57252539973706,34.57252539973706,35.57261889986694,35.57261889986694,35.82331979973242,v,1,0.2404938000254333,None,p1,001,2024-10-17_10h24.50.058,motor seq3,2024.1.5,None,2024-10-17 10h24.57.848072 +0530,
50,c,3,2,14,2,,,,,35.839161299634725,,35.824077299796045,35.839161299634725,36.839202399831265,36.839202399831265,36.839202399831265,36.839202399831265,36.839202399831265,37.8391540995799,37.8391540995799,38.10725409956649,c,1,0.2662299000658095,None,p1,001,2024-10-17_10h24.50.058,motor seq3,2024.1.5,None,2024-10-17 10h24.57.848072 +0530,
-150,z,3,3,15,3,,,,,38.122599199879915,,38.10804959991947,38.122599199879915,39.12276339996606,39.12276339996606,39.12276339996606,39.12276339996606,39.12276339996606,40.122821799945086,40.122821799945086,40.44021509960294,z,1,0.3063771999441087,None,p1,001,2024-10-17_10h24.50.058,motor seq3,2024.1.5,None,2024-10-17 10h24.57.848072 +0530,
-50,x,4,0,16,0,,,,,40.45584760000929,,40.44096679985523,40.45584760000929,41.455998399760574,41.455998399760574,41.455998399760574,41.455998399760574,41.455998399760574,42.456012499984354,42.456012499984354,42.75698319962248,x,1,0.29306349996477365,None,p1,001,2024-10-17_10h24.50.058,motor seq3,2024.1.5,None,2024-10-17 10h24.57.848072 +0530,
150,v,4,1,17,1,,,,,42.77263969974592,,42.757741399575025,42.77263969974592,43.77258469955996,43.77258469955996,43.77258469955996,43.77258469955996,43.77258469955996,44.77257049968466,44.77257049968466,45.35689329961315,v,1,0.5692548998631537,None,p1,001,2024-10-17_10h24.50.058,motor seq3,2024.1.5,None,2024-10-17 10h24.57.848072 +0530,
50,c,4,2,18,2,,,,,45.372647899668664,,45.35763549990952,45.372647899668664,46.372582599986345,46.372582599986345,46.372582599986345,46.372582599986345,46.372582599986345,47.372618599794805,47.372618599794805,48.02500159991905,c,1,0.6384334000758827,None,p1,001,2024-10-17_10h24.50.058,motor seq3,2024.1.5,None,2024-10-17 10h24.57.848072 +0530,
-150,z,4,3,19,3,,,,,48.03929859958589,,48.02581089967862,48.03929859958589,49.03930829977617,49.03930829977617,49.03930829977617,49.03930829977617,49.03930829977617,50.039313399698585,50.039313399698585,50.35684089967981,z,1,0.3122660997323692,None,p1,001,2024-10-17_10h24.50.058,motor seq3,2024.1.5,None,2024-10-17 10h24.57.848072 +0530,
-50,x,5,0,20,0,,,,,50.37255729967728,,50.357611399609596,50.37255729967728,51.37261119997129,51.37261119997129,51.37261119997129,51.37261119997129,51.37261119997129,52.37256039958447,52.37256039958447,52.84003249974921,x,1,0.45738099981099367,None,p1,001,2024-10-17_10h24.50.058,motor seq3,2024.1.5,None,2024-10-17 10h24.57.848072 +0530,
150,v,5,1,21,1,,,,,52.85610629990697,,52.84081560000777,52.85610629990697,53.855903499759734,53.855903499759734,53.855903499759734,53.855903499759734,53.855903499759734,54.85593149997294,54.85593149997294,55.39288039971143,v,1,0.5257860999554396,None,p1,001,2024-10-17_10h24.50.058,motor seq3,2024.1.5,None,2024-10-17 10h24.57.848072 +0530,
50,c,5,2,22,2,,,,,55.40587389981374,,55.39367099991068,55.40587389981374,56.405895999632776,56.405895999632776,56.405895999632776,56.405895999632776,56.405895999632776,57.405988399870694,57.405988399870694,57.724784599617124,c,1,0.315665100235492,None,p1,001,2024-10-17_10h24.50.058,motor seq3,2024.1.5,None,2024-10-17 10h24.57.848072 +0530,
-150,z,5,3,23,3,,,,,57.73940769955516,,57.72558519989252,57.73940769955516,58.73927709972486,58.73927709972486,58.73927709972486,58.73927709972486,58.73927709972486,59.739398799836636,59.739398799836636,60.05735439993441,z,1,0.31524130003526807,None,p1,001,2024-10-17_10h24.50.058,motor seq3,2024.1.5,None,2024-10-17 10h24.57.848072 +0530,
-50,x,6,0,24,0,,,,,60.07259149989113,,60.058183499611914,60.07259149989113,61.07258809963241,61.07258809963241,61.07258809963241,61.07258809963241,61.07258809963241,62.07265119999647,62.07265119999647,62.92383869970217,x,1,0.8362038000486791,None,p1,001,2024-10-17_10h24.50.058,motor seq3,2024.1.5,None,2024-10-17 10h24.57.848072 +0530,
150,v,6,1,25,1,,,,,62.939425699878484,,62.924591299612075,62.939425699878484,63.93924089986831,63.93924089986831,63.93924089986831,63.93924089986831,63.93924089986831,64.93921879958361,64.93921879958361,65.70722769992426,v,1,0.7541660000570118,None,p1,001,2024-10-17_10h24.50.058,motor seq3,2024.1.5,None,2024-10-17 10h24.57.848072 +0530,
50,c,6,2,26,2,,,,,65.7225471995771,,65.70826129987836,65.7225471995771,66.7226203000173,66.7226203000173,66.7226203000173,66.7226203000173,66.7226203000173,67.7225937996991,67.7225937996991,68.79015709972009,c,1,1.0573630998842418,None,p1,001,2024-10-17_10h24.50.058,motor seq3,2024.1.5,None,2024-10-17 10h24.57.848072 +0530,
-150,z,6,3,27,3,,,,,68.80583989992738,,68.79090609960258,68.80583989992738,69.80618770001456,69.80618770001456,69.80618770001456,69.80618770001456,69.80618770001456,70.8060102998279,70.8060102998279,71.1405516997911,z,1,0.3266730001196265,None,p1,001,2024-10-17_10h24.50.058,motor seq3,2024.1.5,None,2024-10-17 10h24.57.848072 +0530,
-50,x,7,0,28,0,,,,,71.15638899989426,,71.14134299987927,71.15638899989426,72.15582749992609,72.15582749992609,72.15582749992609,72.15582749992609,72.15582749992609,73.15588649967685,73.15588649967685,73.59105929965153,x,1,0.4191811000928283,None,p1,001,2024-10-17_10h24.50.058,motor seq3,2024.1.5,None,2024-10-17 10h24.57.848072 +0530,
150,v,7,1,29,1,,,,,73.60583589971066,,73.59183939965442,73.60583589971066,74.60596919991076,74.60596919991076,74.60596919991076,74.60596919991076,74.60596919991076,75.60585469985381,75.60585469985381,76.0912824999541,v,1,0.48009820003062487,None,p1,001,2024-10-17_10h24.50.058,motor seq3,2024.1.5,None,2024-10-17 10h24.57.848072 +0530,
50,c,7,2,30,2,,,,,76.10588119970635,,76.0920899999328,76.10588119970635,77.10606519971043,77.10606519971043,77.10606519971043,77.10606519971043,77.10606519971043,78.10596799990162,78.10596799990162,78.65760899987072,c,1,0.541985500138253,None,p1,001,2024-10-17_10h24.50.058,motor seq3,2024.1.5,None,2024-10-17 10h24.57.848072 +0530,
-150,z,7,3,31,3,,,,,78.67261429969221,,78.65837619965896,78.67261429969221,79.67272299993783,79.67272299993783,79.67272299993783,79.67272299993783,79.67272299993783,80.67269139969721,80.67269139969721,81.04026669962332,z,1,0.35248739970847964,None,p1,001,2024-10-17_10h24.50.058,motor seq3,2024.1.5,None,2024-10-17 10h24.57.848072 +0530,
-50,x,8,0,32,0,,,,,81.05599319981411,,81.04101239982992,81.05599319981411,82.05597239965573,82.05597239965573,82.05597239965573,82.05597239965573,82.05597239965573,83.05602099979296,83.05602099979296,83.67458539968356,x,1,0.6149456002749503,None,p1,001,2024-10-17_10h24.50.058,motor seq3,2024.1.5,None,2024-10-17 10h24.57.848072 +0530,
150,v,8,1,33,1,,,,,83.68924729991704,,83.67535189958289,83.68924729991704,84.68921360000968,84.68921360000968,84.68921360000968,84.68921360000968,84.68921360000968,85.68932239990681,85.68932239990681,86.12349329981953,v,1,0.4234743001870811,None,p1,001,2024-10-17_10h24.50.058,motor seq3,2024.1.5,None,2024-10-17 10h24.57.848072 +0530,
50,c,8,2,34,2,,,,,86.13921669963747,,86.12424079980701,86.13921669963747,87.13943579979241,87.13943579979241,87.13943579979241,87.13943579979241,87.13943579979241,88.13910299958661,88.13910299958661,88.40786989964545,c,1,0.2601932003162801,None,p1,001,2024-10-17_10h24.50.058,motor seq3,2024.1.5,None,2024-10-17 10h24.57.848072 +0530,
-150,z,8,3,35,3,,,,,88.42291199974716,,88.40919179981574,88.42291199974716,89.42247089976445,89.42247089976445,89.42247089976445,89.42247089976445,89.42247089976445,90.42275499971583,90.42275499971583,90.74010639963672,z,1,0.3098439001478255,None,p1,001,2024-10-17_10h24.50.058,motor seq3,2024.1.5,None,2024-10-17 10h24.57.848072 +0530,
-50,x,9,0,36,0,,,,,90.75590549968183,,90.74095259979367,90.75590549968183,91.75592569960281,91.75592569960281,91.75592569960281,91.75592569960281,91.75592569960281,92.75593129964545,92.75593129964545,93.45698519982398,x,1,0.698322500102222,None,p1,001,2024-10-17_10h24.50.058,motor seq3,2024.1.5,None,2024-10-17 10h24.57.848072 +0530,
150,v,9,1,37,1,,,,,93.47265029978007,,93.45775149995461,93.47265029978007,94.45596189983189,94.45596189983189,94.45596189983189,94.45596189983189,94.47273429995403,95.47231149999425,95.47231149999425,96.10650239977986,v,1,0.6218620999716222,None,p1,001,2024-10-17_10h24.50.058,motor seq3,2024.1.5,None,2024-10-17 10h24.57.848072 +0530,
50,c,9,2,38,2,,,,,96.12279469985515,,96.10725639993325,96.12279469985515,97.12268579984084,97.12268579984084,97.12268579984084,97.12268579984084,97.12268579984084,98.10592549992725,98.10592549992725,98.67415299965069,c,1,0.5663495003245771,None,p1,001,2024-10-17_10h24.50.058,motor seq3,2024.1.5,None,2024-10-17 10h24.57.848072 +0530,
-150,z,9,3,39,3,,,,,98.68937909975648,,98.67498359968886,98.68937909975648,99.68918959982693,99.68918959982693,99.68918959982693,99.68918959982693,99.68918959982693,100.6893189996481,100.6893189996481,101.05741169955581,z,1,0.3634156002663076,None,p1,001,2024-10-17_10h24.50.058,motor seq3,2024.1.5,None,2024-10-17 10h24.57.848072 +0530,
-50,x,10,0,40,0,,,,,101.0724931997247,,101.05823939992115,101.0724931997247,102.07245799992234,102.07245799992234,102.07245799992234,102.07245799992234,102.07245799992234,103.07253299979493,103.07253299979493,103.38998520001769,x,1,0.3061382002197206,None,p1,001,2024-10-17_10h24.50.058,motor seq3,2024.1.5,None,2024-10-17 10h24.57.848072 +0530,
150,v,10,1,41,1,,,,,103.40586859965697,,103.39074359973893,103.40586859965697,104.40588859980926,104.40588859980926,104.40588859980926,104.40588859980926,104.40588859980926,105.40577459987253,105.40577459987253,105.8753612996079,v,1,0.4626795998774469,None,p1,001,2024-10-17_10h24.50.058,motor seq3,2024.1.5,None,2024-10-17 10h24.57.848072 +0530,
50,c,10,2,42,2,,,,,105.88917799992487,,105.87665099976584,105.88917799992487,106.88917669979855,106.88917669979855,106.88917669979855,106.88917669979855,106.88917669979855,107.88930179970339,107.88930179970339,108.42330109979957,c,1,0.5297061000019312,None,p1,001,2024-10-17_10h24.50.058,motor seq3,2024.1.5,None,2024-10-17 10h24.57.848072 +0530,
-150,z,10,3,43,3,,,,,108.43926089955494,,108.42409609956667,108.43926089955494,109.43911769986153,109.43911769986153,109.43911769986153,109.43911769986153,109.43911769986153,110.43918579956517,110.43918579956517,110.75770299974829,z,1,0.3096265001222491,None,p1,001,2024-10-17_10h24.50.058,motor seq3,2024.1.5,None,2024-10-17 10h24.57.848072 +0530,
-50,x,11,0,44,0,,,,,110.77292409958318,,110.75918199960142,110.77292409958318,111.77268299972638,111.77268299972638,111.77268299972638,111.77268299972638,111.77268299972638,112.77257779985666,112.77257779985666,113.02375399973243,x,1,0.23754419991746545,None,p1,001,2024-10-17_10h24.50.058,motor seq3,2024.1.5,None,2024-10-17 10h24.57.848072 +0530,
150,v,11,1,45,1,,,,,113.03924379963428,,113.02467459999025,113.03924379963428,114.03915929980576,114.03915929980576,114.03915929980576,114.03915929980576,114.03915929980576,115.03905189968646,115.03905189968646,115.50710509996861,v,1,0.4623094000853598,None,p1,001,2024-10-17_10h24.50.058,motor seq3,2024.1.5,None,2024-10-17 10h24.57.848072 +0530,
50,c,11,2,46,2,,,,,115.52273279987276,,115.50787809956819,115.52273279987276,116.52260549971834,116.52260549971834,116.52260549971834,116.52260549971834,116.52260549971834,117.52246969984844,117.52246969984844,117.77339819958434,c,1,0.24026049999520183,None,p1,001,2024-10-17_10h24.50.058,motor seq3,2024.1.5,None,2024-10-17 10h24.57.848072 +0530,
-150,z,11,3,47,3,,,,,117.78907319996506,,117.77421709988266,117.78907319996506,118.78907279996201,118.78907279996201,118.78907279996201,118.78907279996201,118.78907279996201,119.78909089975059,119.78909089975059,119.84037429979071,z,1,0.0341284996829927,None,p1,001,2024-10-17_10h24.50.058,motor seq3,2024.1.5,None,2024-10-17 10h24.57.848072 +0530,
-50,x,12,0,48,0,,,,,119.85598829993978,,119.8411558996886,119.85598829993978,120.85595429968089,120.85595429968089,120.85595429968089,120.85595429968089,120.85595429968089,121.84166509984061,121.84166509984061,122.4094270998612,x,1,0.5565051999874413,None,p1,001,2024-10-17_10h24.50.058,motor seq3,2024.1.5,None,2024-10-17 10h24.57.848072 +0530,
150,v,12,1,49,1,,,,,122.42502480000257,,122.41021179966629,122.42502480000257,123.42510379990563,123.42510379990563,123.42510379990563,123.42510379990563,123.42510379990563,124.42547579994425,124.42547579994425,124.81027469970286,v,1,0.3825411000289023,None,p1,001,2024-10-17_10h24.50.058,motor seq3,2024.1.5,None,2024-10-17 10h24.57.848072 +0530,
50,c,12,2,50,2,,,,,124.82542389957234,,124.81107119983062,124.82542389957234,125.825177999679,125.825177999679,125.825177999679,125.825177999679,125.825177999679,126.82538539962843,126.82538539962843,127.4100611996837,c,1,0.5821409001946449,None,p1,001,2024-10-17_10h24.50.058,motor seq3,2024.1.5,None,2024-10-17 10h24.57.848072 +0530,
-150,z,12,3,51,3,,,,,127.4251159997657,,127.4108446999453,127.4251159997657,128.42507419968024,128.42507419968024,128.42507419968024,128.42507419968024,128.42507419968024,129.42566879978403,129.42566879978403,130.00639819959179,z,1,0.5716547002084553,None,p1,001,2024-10-17_10h24.50.058,motor seq3,2024.1.5,None,2024-10-17 10h24.57.848072 +0530,
-50,x,13,0,52,0,,,,,130.02251559961587,,130.00713959988207,130.02251559961587,131.02268089959398,131.02268089959398,131.02268089959398,131.02268089959398,131.02268089959398,132.00612189993262,132.00612189993262,132.45691289985552,x,1,0.4387340000830591,None,p1,001,2024-10-17_10h24.50.058,motor seq3,2024.1.5,None,2024-10-17 10h24.57.848072 +0530,
150,v,13,1,53,1,,,,,132.47266329964623,,132.45765959983692,132.47266329964623,133.47265059966594,133.47265059966594,133.47265059966594,133.47265059966594,133.47265059966594,134.4724608999677,134.4724608999677,134.82369979983196,v,1,0.34774009976536036,None,p1,001,2024-10-17_10h24.50.058,motor seq3,2024.1.5,None,2024-10-17 10h24.57.848072 +0530,
50,c,13,2,54,2,,,,,134.83936769980937,,134.82461989996955,134.83936769980937,135.83915629982948,135.83915629982948,135.83915629982948,135.83915629982948,135.83915629982948,136.8389114998281,136.8389114998281,137.19050439959392,c,1,0.3467346001416445,None,p1,001,2024-10-17_10h24.50.058,motor seq3,2024.1.5,None,2024-10-17 10h24.57.848072 +0530,
-150,z,13,3,55,3,,,,,137.20598939992487,,137.19125549960881,137.20598939992487,138.20607939967886,138.20607939967886,138.20607939967886,138.20607939967886,138.20607939967886,139.2056927997619,139.2056927997619,139.95666539995,z,1,0.744176599662751,None,p1,001,2024-10-17_10h24.50.058,motor seq3,2024.1.5,None,2024-10-17 10h24.57.848072 +0530,
-50,x,14,0,56,0,,,,,139.97247129958123,,139.95742509979755,139.97247129958123,140.9592595999129,140.9592595999129,140.9592595999129,140.9592595999129,140.9756573997438,141.9592248997651,141.9592248997651,142.2766042998992,x,1,0.30425089970231056,None,p1,001,2024-10-17_10h24.50.058,motor seq3,2024.1.5,None,2024-10-17 10h24.57.848072 +0530,
150,v,14,1,57,1,,,,,142.29245409974828,,142.27735639968887,142.29245409974828,143.29257789999247,143.29257789999247,143.29257789999247,143.29257789999247,143.29257789999247,144.292471899651,144.292471899651,144.8268521996215,v,1,0.5194474998861551,None,p1,001,2024-10-17_10h24.50.058,motor seq3,2024.1.5,None,2024-10-17 10h24.57.848072 +0530,
50,c,14,2,58,2,,,,,144.84235159959644,,144.82762029999867,144.84235159959644,145.8424318996258,145.8424318996258,145.8424318996258,145.8424318996258,145.8424318996258,146.84267269959673,146.84267269959673,147.74686069972813,c,1,0.8875861996784806,None,p1,001,2024-10-17_10h24.50.058,motor seq3,2024.1.5,None,2024-10-17 10h24.57.848072 +0530,
-150,z,14,3,59,3,,,,,147.76215559989214,,147.74761299975216,147.76215559989214,148.76284280000255,148.76284280000255,148.76284280000255,148.76284280000255,148.76284280000255,149.7620060998015,149.7620060998015,150.11300679994747,z,1,0.3449589000083506,None,p1,001,2024-10-17_10h24.50.058,motor seq3,2024.1.5,None,2024-10-17 10h24.57.848072 +0530,
-50,x,15,0,60,0,,,,,150.12932969955727,,150.11376049974933,150.12932969955727,151.12846009992063,151.12846009992063,151.12846009992063,151.12846009992063,151.12846009992063,152.12827269965783,152.12827269965783,152.47924279980361,x,1,0.3431545998901129,None,p1,001,2024-10-17_10h24.50.058,motor seq3,2024.1.5,None,2024-10-17 10h24.57.848072 +0530,
150,v,15,1,61,1,,,,,152.4950264999643,,152.4801310999319,152.4950264999643,153.49510840000585,153.49510840000585,153.49510840000585,153.49510840000585,153.49510840000585,154.49499949999154,154.49499949999154,155.11369449971244,v,1,0.6090898998081684,None,p1,001,2024-10-17_10h24.50.058,motor seq3,2024.1.5,None,2024-10-17 10h24.57.848072 +0530,
50,c,15,2,62,2,,,,,155.12880039960146,,155.11445599980652,155.12880039960146,156.1283750999719,156.1283750999719,156.1283750999719,156.1283750999719,156.1283750999719,157.12967629963532,157.12967629963532,157.98015839979053,c,1,0.8446356002241373,None,p1,001,2024-10-17_10h24.50.058,motor seq3,2024.1.5,None,2024-10-17 10h24.57.848072 +0530,
-150,z,15,3,63,3,,,,,157.99500969983637,,157.98094349959865,157.99500969983637,158.99546369956806,158.99546369956806,158.99546369956806,158.99546369956806,158.99546369956806,159.99485719995573,159.99485719995573,160.546019599773,z,1,0.5350017999298871,None,p1,001,2024-10-17_10h24.50.058,motor seq3,2024.1.5,None,2024-10-17 10h24.57.848072 +0530,
-50,x,16,0,64,0,,,,,160.56180759985,,160.54692009976134,160.56180759985,161.5618721996434,161.5618721996434,161.5618721996434,161.5618721996434,161.5618721996434,162.56199189973995,162.56199189973995,163.01285329973325,x,1,0.4388306001201272,None,p1,001,2024-10-17_10h24.50.058,motor seq3,2024.1.5,None,2024-10-17 10h24.57.848072 +0530,
150,v,16,1,65,1,,,,,163.02829179959372,,163.01367479981855,163.02829179959372,164.02599499979988,164.02599499979988,164.02599499979988,164.02599499979988,164.04261289956048,165.02587089966983,165.02587089966983,165.61003029998392,v,1,0.5671927002258599,None,p1,001,2024-10-17_10h24.50.058,motor seq3,2024.1.5,None,2024-10-17 10h24.57.848072 +0530,
50,c,16,2,66,2,,,,,165.62591779977083,,165.610811999999,165.62591779977083,166.6257488997653,166.6257488997653,166.6257488997653,166.6257488997653,166.6257488997653,167.6257586996071,167.6257586996071,168.1768574998714,c,1,0.5410883002914488,None,p1,001,2024-10-17_10h24.50.058,motor seq3,2024.1.5,None,2024-10-17 10h24.57.848072 +0530,
-150,z,16,3,67,3,,,,,168.19247869960964,,168.1779324999079,168.19247869960964,169.19228129973635,169.19228129973635,169.19228129973635,169.19228129973635,169.19228129973635,170.19270539982244,170.19270539982244,170.72673999983817,z,1,0.5317457001656294,None,p1,001,2024-10-17_10h24.50.058,motor seq3,2024.1.5,None,2024-10-17 10h24.57.848072 +0530,
-50,x,17,0,68,0,,,,,170.74230729974806,,170.72750229993835,170.74230729974806,171.74243439966813,171.74243439966813,171.74243439966813,171.74243439966813,171.74243439966813,172.7423966997303,172.7423966997303,173.179197399877,x,1,0.2618916002102196,None,p1,001,2024-10-17_10h24.50.058,motor seq3,2024.1.5,None,2024-10-17 10h24.57.848072 +0530,
150,v,17,1,69,1,,,,,173.20083939982578,,173.18002599989995,173.20083939982578,174.18421829957515,174.18421829957515,174.18421829957515,174.18421829957515,174.20071679959074,175.1840911996551,175.1840911996551,175.5860154000111,v,1,0.3988434001803398,None,p1,001,2024-10-17_10h24.50.058,motor seq3,2024.1.5,None,2024-10-17 10h24.57.848072 +0530,
50,c,17,2,70,2,,,,,175.60087069962174,,175.58680239971727,175.60087069962174,176.6009670998901,176.6009670998901,176.6009670998901,176.6009670998901,176.6009670998901,177.6006630999036,177.6006630999036,178.31826439965516,c,1,0.7137510003522038,None,p1,001,2024-10-17_10h24.50.058,motor seq3,2024.1.5,None,2024-10-17 10h24.57.848072 +0530,
-150,z,17,3,71,3,,,,,178.33409129967913,,178.31905589997768,178.33409129967913,179.33422899991274,179.33422899991274,179.33422899991274,179.33422899991274,179.33422899991274,180.33412239979953,180.33412239979953,180.9519952996634,z,1,0.6077266000211239,None,p1,001,2024-10-17_10h24.50.058,motor seq3,2024.1.5,None,2024-10-17 10h24.57.848072 +0530,
-50,x,18,0,72,0,,,,,180.96743719978258,,180.95279689971358,180.96743719978258,181.9675067998469,181.9675067998469,181.9675067998469,181.9675067998469,181.9675067998469,182.96751889958978,182.96751889958978,183.3684095996432,x,1,0.38946460001170635,None,p1,001,2024-10-17_10h24.50.058,motor seq3,2024.1.5,None,2024-10-17 10h24.57.848072 +0530,
150,v,18,1,73,1,,,,,183.38410409959033,,183.36980240000412,183.38410409959033,184.38410069979727,184.38410069979727,184.38410069979727,184.38410069979727,184.38410069979727,185.3843147996813,185.3843147996813,185.91902539972216,v,1,0.5213489001616836,None,p1,001,2024-10-17_10h24.50.058,motor seq3,2024.1.5,None,2024-10-17 10h24.57.848072 +0530,
50,c,18,2,74,2,,,,,185.93408179981634,,185.91979359975085,185.93408179981634,186.9341428996995,186.9341428996995,186.9341428996995,186.9341428996995,186.9341428996995,187.9342044997029,187.9342044997029,188.5519212000072,c,1,0.6140386997722089,None,p1,001,2024-10-17_10h24.50.058,motor seq3,2024.1.5,None,2024-10-17 10h24.57.848072 +0530,
-150,z,18,3,75,3,,,,,188.56753339990973,,188.55268609989434,188.56753339990973,189.5674439999275,189.5674439999275,189.5674439999275,189.5674439999275,189.5674439999275,190.56762909982353,190.56762909982353,191.01838849997148,z,1,0.44528530025854707,None,p1,001,2024-10-17_10h24.50.058,motor seq3,2024.1.5,None,2024-10-17 10h24.57.848072 +0530,
-50,x,19,0,76,0,,,,,191.03410079982132,,191.01912599988282,191.03410079982132,192.03407699987292,192.03407699987292,192.03407699987292,192.03407699987292,192.03407699987292,193.03412369964644,193.03412369964644,193.6518430998549,x,1,0.6014645001851022,None,p1,001,2024-10-17_10h24.50.058,motor seq3,2024.1.5,None,2024-10-17 10h24.57.848072 +0530,
150,v,19,1,77,1,,,,,193.6676473999396,,193.65260789962485,193.6676473999396,194.65134589979425,194.65134589979425,194.65134589979425,194.65134589979425,194.66826820001006,195.65144599974155,195.65144599974155,196.2687984998338,v,1,0.6154151996597648,None,p1,001,2024-10-17_10h24.50.058,motor seq3,2024.1.5,None,2024-10-17 10h24.57.848072 +0530,
50,c,19,2,78,2,,,,,196.28455320000648,,196.2695437995717,196.28455320000648,197.2847459996119,197.2847459996119,197.2847459996119,197.2847459996119,197.2847459996119,198.28473979979753,198.28473979979753,198.78660899959505,c,1,0.4899154002778232,None,p1,001,2024-10-17_10h24.50.058,motor seq3,2024.1.5,None,2024-10-17 10h24.57.848072 +0530,
-150,z,19,3,79,3,,,,,198.80145889986306,,198.7873899997212,198.80145889986306,199.8014631997794,199.8014631997794,199.8014631997794,199.8014631997794,199.8014631997794,200.80142259970307,200.80142259970307,201.3519281996414,z,1,0.5445725996978581,None,p1,001,2024-10-17_10h24.50.058,motor seq3,2024.1.5,None,2024-10-17 10h24.57.848072 +0530,
-50,x,20,0,80,0,,,,,201.36813089996576,,201.35268409969285,201.36813089996576,202.36844319989905,202.36844319989905,202.36844319989905,202.36844319989905,202.36844319989905,203.35127819981426,203.35127819981426,203.83581519965082,c,0,0.48065630020573735,None,p1,001,2024-10-17_10h24.50.058,motor seq3,2024.1.5,None,2024-10-17 10h24.57.848072 +0530,
150,v,20,1,81,1,,,,,203.85139489965513,,203.83657249994576,203.85139489965513,204.85133619979024,204.85133619979024,204.85133619979024,204.85133619979024,204.85133619979024,205.8513245997019,205.8513245997019,206.3690589996986,v,1,0.5030690003186464,None,p1,001,2024-10-17_10h24.50.058,motor seq3,2024.1.5,None,2024-10-17 10h24.57.848072 +0530,
50,c,20,2,82,2,,,,,206.38471829984337,,206.36979449959472,206.38471829984337,207.38449169974774,207.38449169974774,207.38449169974774,207.38449169974774,207.38449169974774,208.38470639986917,208.38470639986917,208.98586639994755,c,1,0.5894303997047246,None,p1,001,2024-10-17_10h24.50.058,motor seq3,2024.1.5,None,2024-10-17 10h24.57.848072 +0530,
-150,z,20,3,83,3,,,,,209.00134499976411,,208.98661779984832,209.00134499976411,210.0013139997609,210.0013139997609,210.0013139997609,210.0013139997609,210.0013139997609,211.00143740000203,211.00143740000203,211.3523522997275,z,1,0.3397838999517262,None,p1,001,2024-10-17_10h24.50.058,motor seq3,2024.1.5,None,2024-10-17 10h24.57.848072 +0530,
-50,x,21,0,84,0,,,,,211.368095099926,,211.3530988995917,211.368095099926,212.36800479982048,212.36800479982048,212.36800479982048,212.36800479982048,212.36800479982048,213.36138379992917,213.36138379992917,213.71211389964446,x,1,0.33426380017772317,None,p1,001,2024-10-17_10h24.50.058,motor seq3,2024.1.5,None,2024-10-17 10h24.57.848072 +0530,
150,v,21,1,85,1,,,,,213.7280669999309,,213.71317339967936,213.7280669999309,214.72786849969998,214.72786849969998,214.72786849969998,214.72786849969998,214.72786849969998,215.72802049992606,215.72802049992606,216.24545549973845,v,1,0.508980699814856,None,p1,001,2024-10-17_10h24.50.058,motor seq3,2024.1.5,None,2024-10-17 10h24.57.848072 +0530,
50,c,21,2,86,2,,,,,216.26147419959307,,216.24620289960876,216.26147419959307,217.26146829966456,217.26146829966456,217.26146829966456,217.26146829966456,217.26146829966456,218.26131999958307,218.26131999958307,218.82915349956602,c,1,0.5546381999738514,None,p1,001,2024-10-17_10h24.50.058,motor seq3,2024.1.5,None,2024-10-17 10h24.57.848072 +0530,
-150,z,21,3,87,3,,,,,218.84473149990663,,218.82992039993405,218.84473149990663,219.84479729970917,219.84479729970917,219.84479729970917,219.84479729970917,219.84479729970917,220.8288019997999,220.8288019997999,221.1129977996461,z,1,0.27898940024897456,None,p1,001,2024-10-17_10h24.50.058,motor seq3,2024.1.5,None,2024-10-17 10h24.57.848072 +0530,
-50,x,22,0,88,0,,,,,221.12919009989128,,221.11374859977514,221.12919009989128,222.12877119984478,222.12877119984478,222.12877119984478,222.12877119984478,222.12877119984478,223.12877459963784,223.12877459963784,223.47979020001367,x,1,0.340629099868238,None,p1,001,2024-10-17_10h24.50.058,motor seq3,2024.1.5,None,2024-10-17 10h24.57.848072 +0530,
150,v,22,1,89,1,,,,,223.4954809998162,,223.48054299969226,223.4954809998162,224.49537369981408,224.49537369981408,224.49537369981408,224.49537369981408,224.49537369981408,225.49560069991276,225.49560069991276,226.44704619981349,v,1,0.9447928001172841,None,p1,001,2024-10-17_10h24.50.058,motor seq3,2024.1.5,None,2024-10-17 10h24.57.848072 +0530,
50,c,22,2,90,2,,,,,226.46233729971573,,226.447860899847,226.46233729971573,227.46200359985232,227.46200359985232,227.46200359985232,227.46200359985232,227.46200359985232,228.46205389965326,228.46205389965326,229.07981479959562,c,1,0.6150724999606609,None,p1,001,2024-10-17_10h24.50.058,motor seq3,2024.1.5,None,2024-10-17 10h24.57.848072 +0530,
-150,z,22,3,91,3,,,,,229.0954651995562,,229.0806927997619,229.0954651995562,230.09584179986268,230.09584179986268,230.09584179986268,230.09584179986268,230.09584179986268,231.09600639995188,231.09600639995188,231.9302267995663,z,1,0.8325199000537395,None,p1,001,2024-10-17_10h24.50.058,motor seq3,2024.1.5,None,2024-10-17 10h24.57.848072 +0530,
-50,x,23,0,92,0,,,,,231.94601049972698,,231.93098539998755,231.94601049972698,232.94583589956164,232.94583589956164,232.94583589956164,232.94583589956164,232.94583589956164,233.94597509969026,233.94597509969026,234.78883029986173,x,1,0.8235112000256777,None,p1,001,2024-10-17_10h24.50.058,motor seq3,2024.1.5,None,2024-10-17 10h24.57.848072 +0530,
150,v,23,1,93,1,,,,,234.79567959997803,,234.7897366997786,234.79567959997803,235.7960158996284,235.7960158996284,235.7960158996284,235.7960158996284,235.7960158996284,236.79593169968575,236.79593169968575,237.34665660001338,v,1,0.536517399828881,None,p1,001,2024-10-17_10h24.50.058,motor seq3,2024.1.5,None,2024-10-17 10h24.57.848072 +0530,
50,c,23,2,94,2,,,,,237.36250939965248,,237.34740199986845,237.36250939965248,238.36263330001384,238.36263330001384,238.36263330001384,238.36263330001384,238.36263330001384,239.36266769981012,239.36266769981012,239.94707779958844,c,1,0.5829389002174139,None,p1,001,2024-10-17_10h24.50.058,motor seq3,2024.1.5,None,2024-10-17 10h24.57.848072 +0530,
-150,z,23,3,95,3,,,,,239.96250229980797,,239.94784269994125,239.96250229980797,240.9627421000041,240.9627421000041,240.9627421000041,240.9627421000041,240.9627421000041,241.96290879976004,241.96290879976004,242.49687689961866,z,1,0.518249100074172,None,p1,001,2024-10-17_10h24.50.058,motor seq3,2024.1.5,None,2024-10-17 10h24.57.848072 +0530,
-50,x,24,0,96,0,,,,,242.51262519974262,,242.49762309994549,242.51262519974262,243.5125227998942,243.5125227998942,243.5125227998942,243.5125227998942,243.5125227998942,244.51256839977577,244.51256839977577,245.19678979972377,x,1,0.6762516000308096,None,p1,001,2024-10-17_10h24.50.058,motor seq3,2024.1.5,None,2024-10-17 10h24.57.848072 +0530,
150,v,24,1,97,1,,,,,245.21289809979498,,245.1975532998331,245.21289809979498,246.21258039958775,246.21258039958775,246.21258039958775,246.21258039958775,246.21258039958775,247.21274239988998,247.21274239988998,247.8481578999199,v,1,0.6233384003862739,None,p1,001,2024-10-17_10h24.50.058,motor seq3,2024.1.5,None,2024-10-17 10h24.57.848072 +0530,
50,c,24,2,98,2,,,,,247.86236699996516,,247.84890079963952,247.86236699996516,248.86255529988557,248.86255529988557,248.86255529988557,248.86255529988557,248.86255529988557,249.86275509977713,249.86275509977713,250.5369597999379,c,1,0.6555474000051618,None,p1,001,2024-10-17_10h24.50.058,motor seq3,2024.1.5,None,2024-10-17 10h24.57.848072 +0530,
-150,z,24,3,99,3,,,,,250.54577449988574,,250.53786279959604,250.54577449988574,251.54612419987097,251.54612419987097,251.54612419987097,251.54612419987097,251.54612419987097,252.54584149969742,252.54584149969742,253.09681249968708,z,1,0.544095799792558,None,p1,001,2024-10-17_10h24.50.058,motor seq3,2024.1.5,None,2024-10-17 10h24.57.848072 +0530,
-50,x,25,0,100,0,,,,,253.11262949975207,,253.09759489959106,253.11262949975207,254.1124973995611,254.1124973995611,254.1124973995611,254.1124973995611,254.1124973995611,255.11264509987086,255.11264509987086,255.66554299974814,x,1,0.5484341001138091,None,p1,001,2024-10-17_10h24.50.058,motor seq3,2024.1.5,None,2024-10-17 10h24.57.848072 +0530,
150,v,25,1,101,1,,,,,255.67924619978294,,255.6663189996034,255.67924619978294,256.6795261995867,256.6795261995867,256.6795261995867,256.6795261995867,256.6795261995867,257.67929939972237,257.67929939972237,258.14663919992745,v,1,0.46174070006236434,None,p1,001,2024-10-17_10h24.50.058,motor seq3,2024.1.5,None,2024-10-17 10h24.57.848072 +0530,
50,c,25,2,102,2,,,,,258.16236589988694,,258.1473862999119,258.16236589988694,259.16275289980695,259.16275289980695,259.16275289980695,259.16275289980695,259.16275289980695,260.16259219963104,260.16259219963104,260.7132687997073,c,1,0.5479615000076592,None,p1,001,2024-10-17_10h24.50.058,motor seq3,2024.1.5,None,2024-10-17 10h24.57.848072 +0530,
-150,z,25,3,103,3,,,,,260.72930849995464,,260.71403119992465,260.72930849995464,261.72899129986763,261.72899129986763,261.72899129986763,261.72899129986763,261.72899129986763,262.7291843998246,262.7291843998246,263.1974396998994,z,1,0.4597255000844598,None,p1,001,2024-10-17_10h24.50.058,motor seq3,2024.1.5,None,2024-10-17 10h24.57.848072 +0530,
-50,x,26,0,104,0,,,,,263.2126442999579,,263.19821209972724,263.2126442999579,264.2126886998303,264.2126886998303,264.2126886998303,264.2126886998303,264.2126886998303,265.2124500996433,265.2124500996433,265.7304559997283,c,0,0.5050498000346124,None,p1,001,2024-10-17_10h24.50.058,motor seq3,2024.1.5,None,2024-10-17 10h24.57.848072 +0530,
150,v,26,1,105,1,,,,,265.74583869986236,,265.73121170001104,265.74583869986236,266.7459689998068,266.7459689998068,266.7459689998068,266.7459689998068,266.7459689998068,267.74602549988776,267.74602549988776,268.1636453997344,v,1,0.41296919994056225,None,p1,001,2024-10-17_10h24.50.058,motor seq3,2024.1.5,None,2024-10-17 10h24.57.848072 +0530,
50,c,26,2,106,2,,,,,268.17924149986356,,268.1644065999426,268.17924149986356,269.1792969997041,269.1792969997041,269.1792969997041,269.1792969997041,269.1792969997041,270.17917049955577,270.17917049955577,270.9635867998004,c,1,0.7739271000027657,None,p1,001,2024-10-17_10h24.50.058,motor seq3,2024.1.5,None,2024-10-17 10h24.57.848072 +0530,
-150,z,26,3,107,3,,,,,270.9792720996775,,270.9655345999636,270.9792720996775,271.9791178996675,271.9791178996675,271.9791178996675,271.9791178996675,271.9791178996675,272.9792086998932,272.9792086998932,273.89722199970856,z,1,0.9043438998050988,None,p1,001,2024-10-17_10h24.50.058,motor seq3,2024.1.5,None,2024-10-17 10h24.57.848072 +0530,
-50,x,27,0,108,0,,,,,273.91259490000084,,273.8979762997478,273.91259490000084,274.91253199987113,274.91253199987113,274.91253199987113,274.91253199987113,274.91253199987113,275.9125699996948,275.9125699996948,276.24713189993054,x,1,0.33126309979707,None,p1,001,2024-10-17_10h24.50.058,motor seq3,2024.1.5,None,2024-10-17 10h24.57.848072 +0530,
150,v,27,1,109,1,,,,,276.26265539973974,,276.247901099734,276.26265539973974,277.2624326995574,277.2624326995574,277.2624326995574,277.2624326995574,277.2624326995574,278.2627009996213,278.2627009996213,278.78019699966535,v,1,0.5160058997571468,None,p1,001,2024-10-17_10h24.50.058,motor seq3,2024.1.5,None,2024-10-17 10h24.57.848072 +0530,
50,c,27,2,110,2,,,,,278.79617719957605,,278.7809629999101,278.79617719957605,279.79597699968144,279.79597699968144,279.79597699968144,279.79597699968144,279.79597699968144,280.7958905999549,280.7958905999549,281.49689099984244,c,1,0.6936702001839876,None,p1,001,2024-10-17_10h24.50.058,motor seq3,2024.1.5,None,2024-10-17 10h24.57.848072 +0530,
-150,z,27,3,111,3,,,,,281.5124369999394,,281.4977908995934,281.5124369999394,282.51227659964934,282.51227659964934,282.51227659964934,282.51227659964934,282.51227659964934,283.51246329955757,283.51246329955757,284.44695009989664,z,1,0.9205656000413001,None,p1,001,2024-10-17_10h24.50.058,motor seq3,2024.1.5,None,2024-10-17 10h24.57.848072 +0530,
-50,x,28,0,112,0,,,,,284.4625489995815,,284.447716999799,284.4625489995815,285.46246319962665,285.46246319962665,285.46246319962665,285.46246319962665,285.46246319962665,286.4626021999866,286.4626021999866,287.23022949974984,x,1,0.753007700201124,None,p1,001,2024-10-17_10h24.50.058,motor seq3,2024.1.5,None,2024-10-17 10h24.57.848072 +0530,
150,v,28,1,113,1,,,,,287.24582039983943,,287.23099399963394,287.24582039983943,288.24595079990104,288.24595079990104,288.24595079990104,288.24595079990104,288.24595079990104,289.24581979960203,289.24581979960203,290.04646929958835,v,1,0.7984188999980688,None,p1,001,2024-10-17_10h24.50.058,motor seq3,2024.1.5,None,2024-10-17 10h24.57.848072 +0530,
50,c,28,2,114,2,,,,,290.0623354995623,,290.0475972997956,290.0623354995623,291.062612099573,291.062612099573,291.062612099573,291.062612099573,291.062612099573,292.0623066998087,292.0623066998087,292.54687989968807,c,1,0.48206919990479946,None,p1,001,2024-10-17_10h24.50.058,motor seq3,2024.1.5,None,2024-10-17 10h24.57.848072 +0530,
-150,z,28,3,115,3,,,,,292.5624895999208,,292.5479591996409,292.5624895999208,293.562572799623,293.562572799623,293.562572799623,293.562572799623,293.562572799623,294.56235739961267,294.56235739961267,295.23000569967553,z,1,0.6601901999674737,None,p1,001,2024-10-17_10h24.50.058,motor seq3,2024.1.5,None,2024-10-17 10h24.57.848072 +0530,
-50,x,29,0,116,0,,,,,295.2458730000071,,295.23077569995075,295.2458730000071,296.24568969989195,296.24568969989195,296.24568969989195,296.24568969989195,296.24568969989195,297.2458554999903,297.2458554999903,297.67973989993334,x,1,0.4197867000475526,None,p1,001,2024-10-17_10h24.50.058,motor seq3,2024.1.5,None,2024-10-17 10h24.57.848072 +0530,
150,v,29,1,117,1,,,,,297.6954851998016,,297.68048189999536,297.6954851998016,298.69595649978146,298.69595649978146,298.69595649978146,298.69595649978146,298.69595649978146,299.6957143996842,299.6957143996842,300.48032879969105,v,1,0.7831827998161316,None,p1,001,2024-10-17_10h24.50.058,motor seq3,2024.1.5,None,2024-10-17 10h24.57.848072 +0530,
50,c,29,2,118,2,,,,,300.4956736997701,,300.4811076996848,300.4956736997701,301.49568109959364,301.49568109959364,301.49568109959364,301.49568109959364,301.49568109959364,302.49590989993885,302.49590989993885,303.26323279971257,c,1,0.7607758999802172,None,p1,001,2024-10-17_10h24.50.058,motor seq3,2024.1.5,None,2024-10-17 10h24.57.848072 +0530,
-150,z,29,3,119,3,,,,,303.2791176997125,,303.2640177998692,303.2791176997125,304.279191899579,304.279191899579,304.279191899579,304.279191899579,304.279191899579,305.2793246996589,305.2793246996589,305.78033179976046,z,1,0.49623070005327463,None,p1,001,2024-10-17_10h24.50.058,motor seq3,2024.1.5,None,2024-10-17 10h24.57.848072 +0530,
-50,x,30,0,120,0,,,,,305.7958806999959,,305.7810876998119,305.7958806999959,306.79574259975925,306.79574259975925,306.79574259975925,306.79574259975925,306.79574259975925,307.795597799588,307.795597799588,308.6297770999372,x,1,0.8186656995676458,None,p1,001,2024-10-17_10h24.50.058,motor seq3,2024.1.5,None,2024-10-17 10h24.57.848072 +0530,
150,v,30,1,121,1,,,,,308.64563009981066,,308.630546099972,308.64563009981066,309.64592659985647,309.64592659985647,309.64592659985647,309.64592659985647,309.64592659985647,310.6291309995577,310.6291309995577,311.63007840001956,v,1,0.9909932999871671,None,p1,001,2024-10-17_10h24.50.058,motor seq3,2024.1.5,None,2024-10-17 10h24.57.848072 +0530,
50,c,30,2,122,2,,,,,311.64587259991094,,311.6308419997804,311.64587259991094,312.6456378996372,312.6456378996372,312.6456378996372,312.6456378996372,312.6456378996372,313.64593929983675,313.64593929983675,314.26417619967833,c,1,0.6135704000480473,None,p1,001,2024-10-17_10h24.50.058,motor seq3,2024.1.5,None,2024-10-17 10h24.57.848072 +0530,
-150,z,30,3,123,3,,,,,314.2792223999277,,314.26493609976023,314.2792223999277,315.2790673999116,315.2790673999116,315.2790673999116,315.2790673999116,315.2790673999116,316.2789443996735,316.2789443996735,316.98004970001057,z,1,0.6911320998333395,None,p1,001,2024-10-17_10h24.50.058,motor seq3,2024.1.5,None,2024-10-17 10h24.57.848072 +0530,
-50,x,31,0,124,0,,,,,316.995901199989,,316.9808235997334,316.995901199989,317.99571579974145,317.99571579974145,317.99571579974145,317.99571579974145,317.99571579974145,318.9957663998939,318.9957663998939,319.84646619996056,x,1,0.8478334997780621,None,p1,001,2024-10-17_10h24.50.058,motor seq3,2024.1.5,None,2024-10-17 10h24.57.848072 +0530,
150,v,31,1,125,1,,,,,319.8627279996872,,319.8472414999269,319.8627279996872,320.8625833997503,320.8625833997503,320.8625833997503,320.8625833997503,320.8625833997503,321.86245929962024,321.86245929962024,322.2801270997152,v,1,0.41518429992720485,None,p1,001,2024-10-17_10h24.50.058,motor seq3,2024.1.5,None,2024-10-17 10h24.57.848072 +0530,
50,c,31,2,126,2,,,,,322.29584949975833,,322.28087849961594,322.29584949975833,323.2959416997619,323.2959416997619,323.2959416997619,323.2959416997619,323.2959416997619,324.295663499739,324.295663499739,324.6968458998017,c,1,0.3852050001733005,None,p1,001,2024-10-17_10h24.50.058,motor seq3,2024.1.5,None,2024-10-17 10h24.57.848072 +0530,
-150,z,31,3,127,3,,,,,324.71243889955804,,324.69760119961575,324.71243889955804,325.71245879959315,325.71245879959315,325.71245879959315,325.71245879959315,325.71245879959315,326.71244439994916,326.71244439994916,327.2801792998798,z,1,0.55667640035972,None,p1,001,2024-10-17_10h24.50.058,motor seq3,2024.1.5,None,2024-10-17 10h24.57.848072 +0530,
-50,x,32,0,128,0,,,,,327.29594519967213,,327.28092559985816,327.29594519967213,328.29601329984143,328.29601329984143,328.29601329984143,328.29601329984143,328.29601329984143,329.2958891997114,329.2958891997114,330.5631052996032,x,1,1.2616106998175383,None,p1,001,2024-10-17_10h24.50.058,motor seq3,2024.1.5,None,2024-10-17 10h24.57.848072 +0530,
150,v,32,1,129,1,,,,,330.5792578998953,,330.5641792998649,330.5792578998953,331.579130299855,331.579130299855,331.579130299855,331.579130299855,331.579130299855,332.57931479997933,332.57931479997933,334.6633983999491,v,1,2.071043800096959,None,p1,001,2024-10-17_10h24.50.058,motor seq3,2024.1.5,None,2024-10-17 10h24.57.848072 +0530,
50,c,32,2,130,2,,,,,334.6791271995753,,334.6641633999534,334.6791271995753,335.6789477998391,335.6789477998391,335.6789477998391,335.6789477998391,335.6789477998391,336.67910969955847,336.67910969955847,337.17982289986685,c,1,0.485867400187999,None,p1,001,2024-10-17_10h24.50.058,motor seq3,2024.1.5,None,2024-10-17 10h24.57.848072 +0530,
-150,z,32,3,131,3,,,,,337.19582529971376,,337.18057029973716,337.19582529971376,338.1958457999863,338.1958457999863,338.1958457999863,338.1958457999863,338.1958457999863,339.1958833998069,339.1958833998069,339.7132677999325,z,1,0.504180199932307,None,p1,001,2024-10-17_10h24.50.058,motor seq3,2024.1.5,None,2024-10-17 10h24.57.848072 +0530,
-50,x,33,0,132,0,,,,,339.7292912998237,,339.71401849994436,339.7292912998237,340.7291710996069,340.7291710996069,340.7291710996069,340.7291710996069,340.7291710996069,341.72909349994734,341.72909349994734,342.54722999967635,x,1,0.8009202000685036,None,p1,001,2024-10-17_10h24.50.058,motor seq3,2024.1.5,None,2024-10-17 10h24.57.848072 +0530,
150,v,33,1,133,1,,,,,342.5626129996963,,342.5479799997993,342.5626129996963,343.56270569982007,343.56270569982007,343.56270569982007,343.56270569982007,343.56270569982007,344.5624618995935,344.5624618995935,345.31519729970023,v,1,0.7503301999531686,None,p1,001,2024-10-17_10h24.50.058,motor seq3,2024.1.5,None,2024-10-17 10h24.57.848072 +0530,
50,c,33,2,134,2,,,,,345.3291473998688,,345.3161152997054,345.3291473998688,346.3290335997008,346.3290335997008,346.3290335997008,346.3290335997008,346.3290335997008,347.32925489963964,347.32925489963964,348.34679250000045,c,1,1.0025076000019908,None,p1,001,2024-10-17_10h24.50.058,motor seq3,2024.1.5,None,2024-10-17 10h24.57.848072 +0530,
-150,z,33,3,135,3,,,,,348.36225899960846,,348.34754289966077,348.36225899960846,349.3622518000193,349.3622518000193,349.3622518000193,349.3622518000193,349.3622518000193,350.36254679970443,350.36254679970443,350.99671219987795,z,1,0.6323486003093421,None,p1,001,2024-10-17_10h24.50.058,motor seq3,2024.1.5,None,2024-10-17 10h24.57.848072 +0530,
-50,x,34,0,136,0,,,,,351.0124836997129,,350.9975028997287,351.0124836997129,352.01246409956366,352.01246409956366,352.01246409956366,352.01246409956366,352.01246409956366,353.0127780996263,353.0127780996263,353.68033329956234,x,1,0.6644337000325322,None,p1,001,2024-10-17_10h24.50.058,motor seq3,2024.1.5,None,2024-10-17 10h24.57.848072 +0530,
150,v,34,1,137,1,,,,,353.69578839978203,,353.6811380996369,353.69578839978203,354.69580529956147,354.69580529956147,354.69580529956147,354.69580529956147,354.69580529956147,355.6957283997908,355.6957283997908,356.2299458999187,v,1,0.5210798000916839,None,p1,001,2024-10-17_10h24.50.058,motor seq3,2024.1.5,None,2024-10-17 10h24.57.848072 +0530,
50,c,34,2,138,2,,,,,356.2457286999561,,356.23070689989254,356.2457286999561,357.24574019992724,357.24574019992724,357.24574019992724,357.24574019992724,357.24574019992724,358.24574109958485,358.24574109958485,358.83009389974177,c,1,0.5744977998547256,None,p1,001,2024-10-17_10h24.50.058,motor seq3,2024.1.5,None,2024-10-17 10h24.57.848072 +0530,
-150,z,34,3,139,3,,,,,358.845739999786,,358.8308712998405,358.845739999786,359.8458210998215,359.8458210998215,359.8458210998215,359.8458210998215,359.8458210998215,360.84559449972585,360.84559449972585,361.7799600996077,z,1,0.9315669001080096,None,p1,001,2024-10-17_10h24.50.058,motor seq3,2024.1.5,None,2024-10-17 10h24.57.848072 +0530,
-50,x,35,0,140,0,,,,,361.7956717996858,,361.78075009956956,361.7956717996858,362.7964486000128,362.7964486000128,362.7964486000128,362.7964486000128,362.7964486000128,363.79568019974977,363.79568019974977,364.21377269970253,x,1,0.4165171002969146,None,p1,001,2024-10-17_10h24.50.058,motor seq3,2024.1.5,None,2024-10-17 10h24.57.848072 +0530,
150,v,35,1,141,1,,,,,364.22908149985597,,364.21460059983656,364.22908149985597,365.228966999799,365.228966999799,365.228966999799,365.228966999799,365.228966999799,366.2289778999984,366.2289778999984,367.5300209997222,v,1,1.284757100045681,None,p1,001,2024-10-17_10h24.50.058,motor seq3,2024.1.5,None,2024-10-17 10h24.57.848072 +0530,
50,c,35,2,142,2,,,,,367.5455843997188,,367.53080579964444,367.5455843997188,368.5461936998181,368.5461936998181,368.5461936998181,368.5461936998181,368.5461936998181,369.54574539978057,369.54574539978057,369.94624139973894,c,1,0.3863742998801172,None,p1,001,2024-10-17_10h24.50.058,motor seq3,2024.1.5,None,2024-10-17 10h24.57.848072 +0530,
-150,z,35,3,143,3,,,,,369.96256469981745,,369.9470266997814,369.96256469981745,370.9460249999538,370.9460249999538,370.9460249999538,370.9460249999538,370.96233489969745,371.962538999971,371.962538999971,372.5130469999276,z,1,0.5473426999524236,None,p1,001,2024-10-17_10h24.50.058,motor seq3,2024.1.5,None,2024-10-17 10h24.57.848072 +0530,
-50,x,36,0,144,0,,,,,372.52908939961344,,372.51380529999733,372.52908939961344,373.5289710997604,373.5289710997604,373.5289710997604,373.5289710997604,373.5289710997604,374.5291502997279,374.5291502997279,375.2467296998948,x,1,0.7122189002111554,None,p1,001,2024-10-17_10h24.50.058,motor seq3,2024.1.5,None,2024-10-17 10h24.57.848072 +0530,
150,v,36,1,145,1,,,,,375.2623336999677,,375.2474814997986,375.2623336999677,376.2623054999858,376.2623054999858,376.2623054999858,376.2623054999858,376.2623054999858,377.2624022997916,377.2624022997916,378.69650759967044,v,1,1.4261325998231769,None,p1,001,2024-10-17_10h24.50.058,motor seq3,2024.1.5,None,2024-10-17 10h24.57.848072 +0530,
50,c,36,2,146,2,,,,,378.71266849990934,,378.69729329971597,378.71266849990934,379.712252299767,379.712252299767,379.712252299767,379.712252299767,379.712252299767,380.7122175996192,380.7122175996192,381.2133405995555,c,1,0.4888218999840319,None,p1,001,2024-10-17_10h24.50.058,motor seq3,2024.1.5,None,2024-10-17 10h24.57.848072 +0530,
-150,z,36,3,147,3,,,,,381.23045849986374,,381.2254444998689,381.23045849986374,382.2139810998924,382.2139810998924,382.2139810998924,382.2139810998924,382.23057099990547,383.2138433996588,383.2138433996588,383.91585119999945,z,1,0.690766999963671,None,p1,001,2024-10-17_10h24.50.058,motor seq3,2024.1.5,None,2024-10-17 10h24.57.848072 +0530,
-50,x,37,0,148,0,,,,,383.93053999962285,,383.9169349996373,383.93053999962285,384.93053849972785,384.93053849972785,384.93053849972785,384.93053849972785,384.93053849972785,385.93054430000484,385.93054430000484,386.6981440996751,x,1,0.7551694000139832,None,p1,001,2024-10-17_10h24.50.058,motor seq3,2024.1.5,None,2024-10-17 10h24.57.848072 +0530,
150,v,37,1,149,1,,,,,386.7137432997115,,386.6991049000062,386.7137432997115,387.7138363998383,387.7138363998383,387.7138363998383,387.7138363998383,387.7138363998383,388.71379189984873,388.71379189984873,389.59822579985484,v,1,0.8671407997608185,None,p1,001,2024-10-17_10h24.50.058,motor seq3,2024.1.5,None,2024-10-17 10h24.57.848072 +0530,
50,c,37,2,150,2,,,,,389.6138709997758,,389.5989847998135,389.6138709997758,390.61378419958055,390.61378419958055,390.61378419958055,390.61378419958055,390.61378419958055,391.61387000000104,391.61387000000104,392.58208839967847,c,1,0.9564616000279784,None,p1,001,2024-10-17_10h24.50.058,motor seq3,2024.1.5,None,2024-10-17 10h24.57.848072 +0530,
-150,z,37,3,151,3,,,,,392.5971715999767,,392.5828464999795,392.5971715999767,393.59716929960996,393.59716929960996,393.59716929960996,393.59716929960996,393.59716929960996,394.597378899809,394.597378899809,394.7314199996181,z,1,0.11992940027266741,None,p1,001,2024-10-17_10h24.50.058,motor seq3,2024.1.5,None,2024-10-17 10h24.57.848072 +0530,
-50,x,38,0,152,0,,,,,394.74720909958705,,394.7321736998856,394.74720909958705,395.7470506997779,395.7470506997779,395.7470506997779,395.7470506997779,395.7470506997779,396.7471516998485,396.7471516998485,397.41486509982497,c,0,0.6641153004020452,None,p1,001,2024-10-17_10h24.50.058,motor seq3,2024.1.5,None,2024-10-17 10h24.57.848072 +0530,
150,v,38,1,153,1,,,,,397.43058799998835,,397.4156568995677,397.43058799998835,398.4304875996895,398.4304875996895,398.4304875996895,398.4304875996895,398.4304875996895,399.4305780995637,399.4305780995637,399.8813531999476,v,1,0.4391711996868253,None,p1,001,2024-10-17_10h24.50.058,motor seq3,2024.1.5,None,2024-10-17 10h24.57.848072 +0530,
50,c,38,2,154,2,,,,,399.89704559976235,,399.8820956996642,399.89704559976235,400.8972425996326,400.8972425996326,400.8972425996326,400.8972425996326,400.8972425996326,401.8972203996964,401.8972203996964,403.34874399984255,c,1,1.4429743001237512,None,p1,001,2024-10-17_10h24.50.058,motor seq3,2024.1.5,None,2024-10-17 10h24.57.848072 +0530,
-150,z,38,3,155,3,,,,,403.36376409977674,,403.3495319997892,403.36376409977674,404.3638226999901,404.3638226999901,404.3638226999901,404.3638226999901,404.3638226999901,405.363836299628,405.363836299628,406.0980653995648,z,1,0.7230217000469565,None,p1,001,2024-10-17_10h24.50.058,motor seq3,2024.1.5,None,2024-10-17 10h24.57.848072 +0530,
-50,x,39,0,156,0,,,,,406.1139480997808,,406.0988451996818,406.1139480997808,407.1139394999482,407.1139394999482,407.1139394999482,407.1139394999482,407.1139394999482,408.1140073998831,408.1140073998831,408.9982562996447,x,1,0.8682098002173007,None,p1,001,2024-10-17_10h24.50.058,motor seq3,2024.1.5,None,2024-10-17 10h24.57.848072 +0530,
150,v,39,1,157,1,,,,,409.01360780000687,,408.9990162998438,409.01360780000687,410.0138466996141,410.0138466996141,410.0138466996141,410.0138466996141,410.0138466996141,411.0138234999031,411.0138234999031,411.981491799932,v,1,0.9649951001629233,None,p1,001,2024-10-17_10h24.50.058,motor seq3,2024.1.5,None,2024-10-17 10h24.57.848072 +0530,
50,c,39,2,158,2,,,,,411.9971828996204,,411.9822556995787,411.9971828996204,412.9971249997616,412.9971249997616,412.9971249997616,412.9971249997616,412.9971249997616,413.99711259966716,413.99711259966716,416.6987683000043,c,1,2.69588530017063,None,p1,001,2024-10-17_10h24.50.058,motor seq3,2024.1.5,None,2024-10-17 10h24.57.848072 +0530,
-150,z,39,3,159,3,,,,,416.71374439960346,,416.69953479990363,416.71374439960346,417.713865599595,417.713865599595,417.713865599595,417.713865599595,417.713865599595,418.71380969975144,418.71380969975144,419.0312737999484,z,1,0.3115078001283109,None,p1,001,2024-10-17_10h24.50.058,motor seq3,2024.1.5,None,2024-10-17 10h24.57.848072 +0530,
-50,x,40,0,160,0,,,,,419.0470612999052,,419.03202469972894,419.0470612999052,420.0471032997593,420.0471032997593,420.0471032997593,420.0471032997593,420.0471032997593,421.0471999999136,421.0471999999136,422.1646885997616,x,1,1.1113323997706175,None,p1,001,2024-10-17_10h24.50.058,motor seq3,2024.1.5,None,2024-10-17 10h24.57.848072 +0530,
150,v,40,1,161,1,,,,,422.18054269999266,,422.16543759964406,422.18054269999266,423.1804525000043,423.1804525000043,423.1804525000043,423.1804525000043,423.1804525000043,424.18032419960946,424.18032419960946,424.6149639999494,v,1,0.42605420015752316,None,p1,001,2024-10-17_10h24.50.058,motor seq3,2024.1.5,None,2024-10-17 10h24.57.848072 +0530,
50,c,40,2,162,2,,,,,424.63054129993543,,424.6158560998738,424.63054129993543,425.6303738998249,425.6303738998249,425.6303738998249,425.6303738998249,425.6303738998249,426.6301503996365,426.6301503996365,427.3147926996462,c,1,0.6717087998986244,None,p1,001,2024-10-17_10h24.50.058,motor seq3,2024.1.5,None,2024-10-17 10h24.57.848072 +0530,
-150,z,40,3,163,3,,,,,427.3304488998838,,427.31553519982845,427.3304488998838,428.3304167999886,428.3304167999886,428.3304167999886,428.3304167999886,428.3304167999886,429.33048249967396,429.33048249967396,430.44851509993896,z,1,1.1152864000760019,None,p1,001,2024-10-17_10h24.50.058,motor seq3,2024.1.5,None,2024-10-17 10h24.57.848072 +0530,
-50,x,41,0,164,0,,,,,430.46386529970914,,430.44926789961755,430.46386529970914,431.4639114998281,431.4639114998281,431.4639114998281,431.4639114998281,431.4639114998281,432.4635883998126,432.4635883998126,433.54820199962705,x,1,1.0794011000543833,None,p1,001,2024-10-17_10h24.50.058,motor seq3,2024.1.5,None,2024-10-17 10h24.57.848072 +0530,
150,v,41,1,165,1,,,,,433.56369340000674,,433.5490244999528,433.56369340000674,434.5637234998867,434.5637234998867,434.5637234998867,434.5637234998867,434.5637234998867,435.5638792999089,435.5638792999089,436.31463449960575,v,1,0.7481733001768589,None,p1,001,2024-10-17_10h24.50.058,motor seq3,2024.1.5,None,2024-10-17 10h24.57.848072 +0530,
50,c,41,2,166,2,,,,,436.3306052996777,,436.31541869975626,436.3306052996777,437.3307517999783,437.3307517999783,437.3307517999783,437.3307517999783,437.3307517999783,438.3304472998716,438.3304472998716,438.964895399753,c,1,0.6204395997337997,None,p1,001,2024-10-17_10h24.50.058,motor seq3,2024.1.5,None,2024-10-17 10h24.57.848072 +0530,
-150,z,41,3,167,3,,,,,438.98056589998305,,438.9656626000069,438.98056589998305,439.98030039994046,439.98030039994046,439.98030039994046,439.98030039994046,439.98030039994046,440.98033469961956,440.98033469961956,441.69787249993533,z,1,0.7151545002125204,None,p1,001,2024-10-17_10h24.50.058,motor seq3,2024.1.5,None,2024-10-17 10h24.57.848072 +0530,
-50,x,42,0,168,0,,,,,441.71402849955484,,441.69863179977983,441.71402849955484,442.71378149976954,442.71378149976954,442.71378149976954,442.71378149976954,442.71378149976954,443.7137750997208,443.7137750997208,444.74858089955524,x,1,1.0325017999857664,None,p1,001,2024-10-17_10h24.50.058,motor seq3,2024.1.5,None,2024-10-17 10h24.57.848072 +0530,
150,v,42,1,169,1,,,,,444.7637616000138,,444.74934359965846,444.7637616000138,445.76380899967626,445.76380899967626,445.76380899967626,445.76380899967626,445.76380899967626,446.7637431998737,446.7637431998737,447.81451709987596,v,1,1.0439486997202039,None,p1,001,2024-10-17_10h24.50.058,motor seq3,2024.1.5,None,2024-10-17 10h24.57.848072 +0530,
50,c,42,2,170,2,,,,,447.8306258996017,,447.81527259992436,447.8306258996017,448.8306024996564,448.8306024996564,448.8306024996564,448.8306024996564,448.8306024996564,449.8303323998116,449.8303323998116,450.21547849988565,c,1,0.3736409000121057,None,p1,001,2024-10-17_10h24.50.058,motor seq3,2024.1.5,None,2024-10-17 10h24.57.848072 +0530,
-150,z,42,3,171,3,,,,,450.2304386999458,,450.21623239992186,450.2304386999458,451.2302438998595,451.2302438998595,451.2302438998595,451.2302438998595,451.2302438998595,452.2303134999238,452.2303134999238,452.96524930000305,z,1,0.7335375999100506,None,p1,001,2024-10-17_10h24.50.058,motor seq3,2024.1.5,None,2024-10-17 10h24.57.848072 +0530,
-50,x,43,0,172,0,,,,,452.9804767998867,,452.9660171996802,452.9804767998867,453.9803942996077,453.9803942996077,453.9803942996077,453.9803942996077,453.9803942996077,454.98034899961203,454.98034899961203,455.34290819987655,x,1,0.3445007000118494,None,p1,001,2024-10-17_10h24.50.058,motor seq3,2024.1.5,None,2024-10-17 10h24.57.848072 +0530,
150,v,43,1,173,1,,,,,455.3521866998635,,455.34438749961555,455.3521866998635,456.35140799963847,456.35140799963847,456.35140799963847,456.35140799963847,456.35140799963847,457.35134939989075,457.35134939989075,458.4022210999392,v,1,1.0485971001908183,None,p1,001,2024-10-17_10h24.50.058,motor seq3,2024.1.5,None,2024-10-17 10h24.57.848072 +0530,
50,c,43,2,174,2,,,,,458.4182152999565,,458.40305059961975,458.4182152999565,459.4180283998139,459.4180283998139,459.4180283998139,459.4180283998139,459.4180283998139,460.41796159977093,460.41796159977093,460.7356132999994,c,1,0.30969429994001985,None,p1,001,2024-10-17_10h24.50.058,motor seq3,2024.1.5,None,2024-10-17 10h24.57.848072 +0530,
-150,z,43,3,175,3,,,,,460.75145609956235,,460.7367220995948,460.75145609956235,461.75134079996496,461.75134079996496,461.75134079996496,461.75134079996496,461.75134079996496,462.75151959992945,462.75151959992945,463.2858573999256,z,1,0.5178346997126937,None,p1,001,2024-10-17_10h24.50.058,motor seq3,2024.1.5,None,2024-10-17 10h24.57.848072 +0530,
-50,x,44,0,176,0,,,,,463.30142109980807,,463.2866565999575,463.30142109980807,464.3014304996468,464.3014304996468,464.3014304996468,464.3014304996468,464.3014304996468,465.30149149987847,465.30149149987847,466.0023861997761,x,1,0.6949447998777032,None,p1,001,2024-10-17_10h24.50.058,motor seq3,2024.1.5,None,2024-10-17 10h24.57.848072 +0530,
150,v,44,1,177,1,,,,,466.01821099966764,,466.00313969980925,466.01821099966764,467.0183912999928,467.0183912999928,467.0183912999928,467.0183912999928,467.0183912999928,468.0183164998889,468.0183164998889,468.3353487998247,v,1,0.31308900006115437,None,p1,001,2024-10-17_10h24.50.058,motor seq3,2024.1.5,None,2024-10-17 10h24.57.848072 +0530,
50,c,44,2,178,2,,,,,468.3515119999647,,468.3360963999294,468.3515119999647,469.3515722998418,469.3515722998418,469.3515722998418,469.3515722998418,469.3515722998418,470.35169129958376,470.35169129958376,470.985711899586,c,1,0.6260408996604383,None,p1,001,2024-10-17_10h24.50.058,motor seq3,2024.1.5,None,2024-10-17 10h24.57.848072 +0530,
-150,z,44,3,179,3,,,,,471.00149729987606,,470.98651989968494,471.00149729987606,472.0014249999076,472.0014249999076,472.0014249999076,472.0014249999076,472.0014249999076,473.0015429998748,473.0015429998748,473.48534739995375,z,1,0.46776820020750165,None,p1,001,2024-10-17_10h24.50.058,motor seq3,2024.1.5,None,2024-10-17 10h24.57.848072 +0530,
-50,x,45,0,180,0,,,,,473.50132759986445,,473.4861034997739,473.50132759986445,474.48514899984,474.48514899984,474.48514899984,474.48514899984,474.50190219981596,475.50126079982147,475.50126079982147,476.0193940997124,x,1,0.5062592001631856,None,p1,001,2024-10-17_10h24.50.058,motor seq3,2024.1.5,None,2024-10-17 10h24.57.848072 +0530,
150,v,45,1,181,1,,,,,476.03483619960025,,476.02031209971756,476.03483619960025,477.0348503999412,477.0348503999412,477.0348503999412,477.0348503999412,477.0348503999412,478.0348118999973,478.0348118999973,478.7524853996001,v,1,0.7066788002848625,None,p1,001,2024-10-17_10h24.50.058,motor seq3,2024.1.5,None,2024-10-17 10h24.57.848072 +0530,
50,c,45,2,182,2,,,,,478.76789719983935,,478.75323439994827,478.76789719983935,479.7684007999487,479.7684007999487,479.7684007999487,479.7684007999487,479.7684007999487,480.76804479956627,480.76804479956627,481.1690235999413,c,1,0.38870850019156933,None,p1,001,2024-10-17_10h24.50.058,motor seq3,2024.1.5,None,2024-10-17 10h24.57.848072 +0530,
-150,z,45,3,183,3,,,,,481.1847317996435,,481.1698099998757,481.1847317996435,482.18470839969814,482.18470839969814,482.18470839969814,482.18470839969814,482.18470839969814,483.1846478995867,483.1846478995867,483.7689110999927,z,1,0.5764234000816941,None,p1,001,2024-10-17_10h24.50.058,motor seq3,2024.1.5,None,2024-10-17 10h24.57.848072 +0530,
-50,x,46,0,184,0,,,,,483.78506499994546,,483.76969869993627,483.78506499994546,484.7850337997079,484.7850337997079,484.7850337997079,484.7850337997079,484.7850337997079,485.7847281997092,485.7847281997092,486.3524982999079,x,1,0.5571580999530852,None,p1,001,2024-10-17_10h24.50.058,motor seq3,2024.1.5,None,2024-10-17 10h24.57.848072 +0530,
150,v,46,1,185,1,,,,,486.36810759967193,,486.3532598996535,486.36810759967193,487.36803399957716,487.36803399957716,487.36803399957716,487.36803399957716,487.36803399957716,488.368049999699,488.368049999699,488.87116270000115,v,1,0.49906729999929667,None,p1,001,2024-10-17_10h24.50.058,motor seq3,2024.1.5,None,2024-10-17 10h24.57.848072 +0530,
50,c,46,2,186,2,,,,,488.884752899874,,488.8719394998625,488.884752899874,489.88492169976234,489.88492169976234,489.88492169976234,489.88492169976234,489.88492169976234,490.8847890999168,490.8847890999168,492.1519875996746,c,1,1.260126800276339,None,p1,001,2024-10-17_10h24.50.058,motor seq3,2024.1.5,None,2024-10-17 10h24.57.848072 +0530,
-150,z,46,3,187,3,,,,,492.16799779981375,,492.1527505996637,492.16799779981375,493.15131310001016,493.15131310001016,493.15131310001016,493.15131310001016,493.1681551998481,494.16827589971945,494.16827589971945,494.5359010999091,z,1,0.3564150999300182,None,p1,001,2024-10-17_10h24.50.058,motor seq3,2024.1.5,None,2024-10-17 10h24.57.848072 +0530,
-50,x,47,0,188,0,,,,,494.55140919983387,,494.5367035996169,494.55140919983387,495.55143149988726,495.55143149988726,495.55143149988726,495.55143149988726,495.55143149988726,496.5513608995825,496.5513608995825,496.91916049970314,x,1,0.3637879998423159,None,p1,001,2024-10-17_10h24.50.058,motor seq3,2024.1.5,None,2024-10-17 10h24.57.848072 +0530,
150,v,47,1,189,1,,,,,496.9348064996302,,496.91990619990975,496.9348064996302,497.93456729967147,497.93456729967147,497.93456729967147,497.93456729967147,497.93456729967147,498.9348533996381,498.9348533996381,499.4359467998147,v,1,0.49706399999558926,None,p1,001,2024-10-17_10h24.50.058,motor seq3,2024.1.5,None,2024-10-17 10h24.57.848072 +0530,
50,c,47,2,190,2,,,,,499.4516925998032,,499.4367060996592,499.4516925998032,500.4514183998108,500.4514183998108,500.4514183998108,500.4514183998108,500.4514183998108,501.4513315996155,501.4513315996155,501.7521953997202,c,1,0.29309549974277616,None,p1,001,2024-10-17_10h24.50.058,motor seq3,2024.1.5,None,2024-10-17 10h24.57.848072 +0530,
-150,z,47,3,191,3,,,,,501.7681154999882,,501.7529406999238,501.7681154999882,502.7681185998954,502.7681185998954,502.7681185998954,502.7681185998954,502.7681185998954,503.7681349995546,503.7681349995546,504.10275089973584,z,1,0.3252688003703952,None,p1,001,2024-10-17_10h24.50.058,motor seq3,2024.1.5,None,2024-10-17 10h24.57.848072 +0530,
-50,x,48,0,192,0,,,,,504.1182918995619,,504.10349229956046,504.1182918995619,505.1180379996076,505.1180379996076,505.1180379996076,505.1180379996076,505.1180379996076,506.1185557995923,506.1185557995923,506.5522624999285,x,1,0.42857160000130534,None,p1,001,2024-10-17_10h24.50.058,motor seq3,2024.1.5,None,2024-10-17 10h24.57.848072 +0530,
150,v,48,1,193,1,,,,,506.568008299917,,506.55300199985504,506.568008299917,507.5678630997427,507.5678630997427,507.5678630997427,507.5678630997427,507.5678630997427,508.5681498995982,508.5681498995982,509.43587669963017,v,1,0.862109299749136,None,p1,001,2024-10-17_10h24.50.058,motor seq3,2024.1.5,None,2024-10-17 10h24.57.848072 +0530,
50,c,48,2,194,2,,,,,509.4513696995564,,509.43663309980184,509.4513696995564,510.451427299995,510.451427299995,510.451427299995,510.451427299995,510.451427299995,511.45146909961477,511.45146909961477,512.2355254995637,c,1,0.7670107996091247,None,p1,001,2024-10-17_10h24.50.058,motor seq3,2024.1.5,None,2024-10-17 10h24.57.848072 +0530,
-150,z,48,3,195,3,,,,,512.2514282995835,,512.2363129998557,512.2514282995835,513.2513387999497,513.2513387999497,513.2513387999497,513.2513387999497,513.2513387999497,514.2515102997422,514.2515102997422,514.3024856997654,z,1,0.034558499697595835,None,p1,001,2024-10-17_10h24.50.058,motor seq3,2024.1.5,None,2024-10-17 10h24.57.848072 +0530,
-50,x,49,0,196,0,,,,,514.3180331997573,,514.3032547999173,514.3180331997573,515.3183980998583,515.3183980998583,515.3183980998583,515.3183980998583,515.3183980998583,516.3181355996057,516.3181355996057,516.7854136996903,x,1,0.4576262002810836,None,p1,001,2024-10-17_10h24.50.058,motor seq3,2024.1.5,None,2024-10-17 10h24.57.848072 +0530,
150,v,49,1,197,1,,,,,516.8014994999394,,516.7861490999348,516.8014994999394,517.8013953999616,517.8013953999616,517.8013953999616,517.8013953999616,517.8013953999616,518.8014659998007,518.8014659998007,520.4359376998618,v,1,1.621980800293386,None,p1,001,2024-10-17_10h24.50.058,motor seq3,2024.1.5,None,2024-10-17 10h24.57.848072 +0530,
50,c,49,2,198,2,,,,,520.4514746000059,,520.4366605998948,520.4514746000059,521.4514419999905,521.4514419999905,521.4514419999905,521.4514419999905,521.4514419999905,522.4513055998832,522.4513055998832,523.0522169996984,c,1,0.5865345997735858,None,p1,001,2024-10-17_10h24.50.058,motor seq3,2024.1.5,None,2024-10-17 10h24.57.848072 +0530,
-150,z,49,3,199,3,,,,,523.0681146997958,,523.0529926996678,523.0681146997958,524.0521183996461,524.0521183996461,524.0521183996461,524.0521183996461,524.0683481995948,525.0680334996432,525.0680334996432,527.4188605998643,z,1,2.3386737001128495,None,p1,001,2024-10-17_10h24.50.058,motor seq3,2024.1.5,None,2024-10-17 10h24.57.848072 +0530,
150,v,,,,,0,0,0,1,527.6097214999609,,527.5902021997608,527.6097214999609,528.4262758996338,528.4262758996338,528.4262758996338,528.4262758996338,528.6096855998039,529.4263571999036,529.4263571999036,531.8778313999064,v,1,2.4501171996816993,None,p1,001,2024-10-17_10h24.50.058,motor seq3,2024.1.5,None,2024-10-17 10h24.57.848072 +0530,
150,v,,,,,0,1,1,1,531.8933535995893,,531.8827566998079,531.8933535995893,532.89294099994,532.89294099994,532.89294099994,532.89294099994,532.89294099994,533.8931087995879,533.8931087995879,534.5274887997657,v,1,0.6197238001041114,None,p1,001,2024-10-17_10h24.50.058,motor seq3,2024.1.5,None,2024-10-17 10h24.57.848072 +0530,
150,v,,,,,0,2,2,1,534.5430310997181,,534.5282566999085,534.5430310997181,535.5430477997288,535.5430477997288,535.5430477997288,535.5430477997288,535.5430477997288,536.543273799587,536.543273799587,536.9608906996436,v,1,0.40701879980042577,None,p1,001,2024-10-17_10h24.50.058,motor seq3,2024.1.5,None,2024-10-17 10h24.57.848072 +0530,
50,c,,,,,0,3,3,2,536.9763530995697,,536.9616501997225,536.9763530995697,537.9763385998085,537.9763385998085,537.9763385998085,537.9763385998085,537.9763385998085,538.9763759998605,538.9763759998605,539.527311399579,c,1,0.5445268996991217,None,p1,001,2024-10-17_10h24.50.058,motor seq3,2024.1.5,None,2024-10-17 10h24.57.848072 +0530,
-150,z,,,,,1,0,4,3,539.5431281998754,,539.5280929999426,539.5431281998754,540.5433217999525,540.5433217999525,540.5433217999525,540.5433217999525,540.5433217999525,541.5430442998186,541.5430442998186,542.1607315996662,z,1,0.6015445999801159,None,p1,001,2024-10-17_10h24.50.058,motor seq3,2024.1.5,None,2024-10-17 10h24.57.848072 +0530,
50,c,,,,,1,1,5,2,542.1765159997158,,542.1615041997284,542.1765159997158,543.176298499573,543.176298499573,543.176298499573,543.176298499573,543.176298499573,544.1764592998661,544.1764592998661,544.7942283996381,c,1,0.6046734000556171,None,p1,001,2024-10-17_10h24.50.058,motor seq3,2024.1.5,None,2024-10-17 10h24.57.848072 +0530,
150,v,,,,,1,2,6,1,544.8097095997073,,544.7949687996879,544.8097095997073,545.8095364999026,545.8095364999026,545.8095364999026,545.8095364999026,545.8095364999026,546.8099818998016,546.8099818998016,547.6271442999132,v,1,0.8103912998922169,None,p1,001,2024-10-17_10h24.50.058,motor seq3,2024.1.5,None,2024-10-17 10h24.57.848072 +0530,
50,c,,,,,1,3,7,2,547.6429143999703,,547.6278929999098,547.6429143999703,548.643065799959,548.643065799959,548.643065799959,548.643065799959,548.643065799959,549.6429158998653,549.6429158998653,550.610422599595,c,1,0.9601125000044703,None,p1,001,2024-10-17_10h24.50.058,motor seq3,2024.1.5,None,2024-10-17 10h24.57.848072 +0530,
-50,x,,,,,2,0,8,0,550.6263823998161,,550.6111708995886,550.6263823998161,551.6263299998827,551.6263299998827,551.6263299998827,551.6263299998827,551.6263299998827,552.626364799682,552.626364799682,553.2954440996982,x,1,0.6600683000870049,None,p1,001,2024-10-17_10h24.50.058,motor seq3,2024.1.5,None,2024-10-17 10h24.57.848072 +0530,
150,v,,,,,2,1,9,1,553.3095656000078,,553.2962128999643,553.3095656000078,554.3098553000018,554.3098553000018,554.3098553000018,554.3098553000018,554.3098553000018,555.3096626996994,555.3096626996994,557.3275212999433,v,1,2.0043958998285234,None,p1,001,2024-10-17_10h24.50.058,motor seq3,2024.1.5,None,2024-10-17 10h24.57.848072 +0530,
-150,z,,,,,2,2,10,3,557.3431508997455,,557.3282602997497,557.3431508997455,558.3434502999298,558.3434502999298,558.3434502999298,558.3434502999298,558.3434502999298,559.3429848998785,559.3429848998785,560.2273766999133,z,1,0.8725540996529162,None,p1,001,2024-10-17_10h24.50.058,motor seq3,2024.1.5,None,2024-10-17 10h24.57.848072 +0530,
150,v,,,,,2,3,11,1,560.2430315995589,,560.2282744999975,560.2430315995589,561.2431528996676,561.2431528996676,561.2431528996676,561.2431528996676,561.2431528996676,562.242853899952,562.242853899952,562.9942220998928,v,1,0.7503538001328707,None,p1,001,2024-10-17_10h24.50.058,motor seq3,2024.1.5,None,2024-10-17 10h24.57.848072 +0530,
150,v,,,,,3,0,12,1,563.0095251998864,,562.9950033999048,563.0095251998864,564.0096255997196,564.0096255997196,564.0096255997196,564.0096255997196,564.0096255997196,565.0095358998515,565.0095358998515,565.4938392997719,v,1,0.4757388001307845,None,p1,001,2024-10-17_10h24.50.058,motor seq3,2024.1.5,None,2024-10-17 10h24.57.848072 +0530,
-50,x,,,,,3,1,13,0,565.5096111996099,,565.4945847997442,565.5096111996099,566.5096308998764,566.5096308998764,566.5096308998764,566.5096308998764,566.5096308998764,567.5096942000091,567.5096942000091,568.1947050997987,x,1,0.6681258999742568,None,p1,001,2024-10-17_10h24.50.058,motor seq3,2024.1.5,None,2024-10-17 10h24.57.848072 +0530,
-150,z,,,,,3,2,14,3,568.2096537998877,,568.1960022998974,568.2096537998877,569.2097188998014,569.2097188998014,569.2097188998014,569.2097188998014,569.2097188998014,570.2098203999922,570.2098203999922,570.7104416997172,z,1,0.49332140013575554,None,p1,001,2024-10-17_10h24.50.058,motor seq3,2024.1.5,None,2024-10-17 10h24.57.848072 +0530,
50,c,,,,,3,3,15,2,570.7265441999771,,570.7112197997048,570.7265441999771,571.7262132996693,571.7262132996693,571.7262132996693,571.7262132996693,571.7262132996693,572.7263922998682,572.7263922998682,574.0105971996672,c,1,1.2696901001036167,None,p1,001,2024-10-17_10h24.50.058,motor seq3,2024.1.5,None,2024-10-17 10h24.57.848072 +0530,
-50,x,,,,,4,0,16,0,574.0263602999039,,574.0114254998043,574.0263602999039,575.0265412996523,575.0265412996523,575.0265412996523,575.0265412996523,575.0265412996523,576.0263136997819,576.0263136997819,576.6274198996834,z,0,0.5839220997877419,None,p1,001,2024-10-17_10h24.50.058,motor seq3,2024.1.5,None,2024-10-17 10h24.57.848072 +0530,
-50,x,,,,,4,1,17,0,576.6430754996836,,576.6281816996634,576.6430754996836,577.6430795998313,577.6430795998313,577.6430795998313,577.6430795998313,577.6430795998313,578.6428522998467,578.6428522998467,579.5942326998338,x,1,0.9407648001797497,None,p1,001,2024-10-17_10h24.50.058,motor seq3,2024.1.5,None,2024-10-17 10h24.57.848072 +0530,
50,c,,,,,4,2,18,2,579.6095779999159,,579.5950987995602,579.6095779999159,580.6096983999014,580.6096983999014,580.6096983999014,580.6096983999014,580.6096983999014,581.6096091996878,581.6096091996878,582.2604597997852,c,1,0.6339539000764489,None,p1,001,2024-10-17_10h24.50.058,motor seq3,2024.1.5,None,2024-10-17 10h24.57.848072 +0530,
50,c,,,,,4,3,19,2,582.2762890998274,,582.2612466998398,582.2762890998274,583.2761358995922,583.2761358995922,583.2761358995922,583.2761358995922,583.2761358995922,584.276277099736,584.276277099736,584.8602193999104,c,1,0.5815102001652122,None,p1,001,2024-10-17_10h24.50.058,motor seq3,2024.1.5,None,2024-10-17 10h24.57.848072 +0530,
50,c,,,,,5,0,20,2,584.8762818998657,,584.8609696999192,584.8762818998657,585.8762415996753,585.8762415996753,585.8762415996753,585.8762415996753,585.8762415996753,586.8597876997665,586.8597876997665,587.2103980998509,c,1,0.34614589996635914,None,p1,001,2024-10-17_10h24.50.058,motor seq3,2024.1.5,None,2024-10-17 10h24.57.848072 +0530,
-150,z,,,,,5,1,21,3,587.2262386996299,,587.2111537000164,587.2262386996299,588.2263915999793,588.2263915999793,588.2263915999793,588.2263915999793,588.2263915999793,589.226147599984,589.226147599984,589.9439371000044,z,1,0.7009725999087095,None,p1,001,2024-10-17_10h24.50.058,motor seq3,2024.1.5,None,2024-10-17 10h24.57.848072 +0530,
150,v,,,,,5,2,22,1,589.9595932997763,,589.9449757998809,589.9595932997763,590.9595478996634,590.9595478996634,590.9595478996634,590.9595478996634,590.9595478996634,591.9596559996717,591.9596559996717,592.7773800999857,v,1,0.8131332001648843,None,p1,001,2024-10-17_10h24.50.058,motor seq3,2024.1.5,None,2024-10-17 10h24.57.848072 +0530,
50,c,,,,,5,3,23,2,592.7931340998039,,592.7781703998335,592.7931340998039,593.7928466997109,593.7928466997109,593.7928466997109,593.7928466997109,593.7928466997109,594.7929560998455,594.7929560998455,595.293705899734,c,1,0.49712130008265376,None,p1,001,2024-10-17_10h24.50.058,motor seq3,2024.1.5,None,2024-10-17 10h24.57.848072 +0530,
150,v,,,,,6,0,24,1,595.3097444996238,,595.2944777999073,595.3097444996238,596.3096782998182,596.3096782998182,596.3096782998182,596.3096782998182,596.3096782998182,597.309638899751,597.309638899751,597.8105180999264,v,1,0.4843799998052418,None,p1,001,2024-10-17_10h24.50.058,motor seq3,2024.1.5,None,2024-10-17 10h24.57.848072 +0530,
50,c,,,,,6,1,25,2,597.826418499928,,597.811279299669,597.826418499928,598.8264095997438,598.8264095997438,598.8264095997438,598.8264095997438,598.8264095997438,599.826306599658,599.826306599658,600.4448780999519,c,1,0.6096117999404669,None,p1,001,2024-10-17_10h24.50.058,motor seq3,2024.1.5,None,2024-10-17 10h24.57.848072 +0530,
50,c,,,,,6,2,26,2,600.4594898996875,,600.4456651997752,600.4594898996875,601.4597103996202,601.4597103996202,601.4597103996202,601.4597103996202,601.4597103996202,602.4595959996805,602.4595959996805,603.0602269996889,c,1,0.583699599839747,None,p1,001,2024-10-17_10h24.50.058,motor seq3,2024.1.5,None,2024-10-17 10h24.57.848072 +0530,
-50,x,,,,,6,3,27,0,603.0763243995607,,603.0610136999749,603.0763243995607,604.0764507995918,604.0764507995918,604.0764507995918,604.0764507995918,604.0764507995918,605.0764863998629,605.0764863998629,606.0444686999545,x,1,0.9565293998457491,None,p1,001,2024-10-17_10h24.50.058,motor seq3,2024.1.5,None,2024-10-17 10h24.57.848072 +0530,
50,c,,,,,7,0,28,2,606.0594511996023,,606.0452111000195,606.0594511996023,607.0596036999486,607.0596036999486,607.0596036999486,607.0596036999486,607.0596036999486,608.0595836997963,608.0595836997963,608.9272877997719,c,1,0.850804700050503,None,p1,001,2024-10-17_10h24.50.058,motor seq3,2024.1.5,None,2024-10-17 10h24.57.848072 +0530,
-150,z,,,,,7,1,29,3,608.9429367999546,,608.9280446995981,608.9429367999546,609.9428510996513,609.9428510996513,609.9428510996513,609.9428510996513,609.9428510996513,610.9428605996072,610.9428605996072,611.4106756998226,z,1,0.465370399877429,None,p1,001,2024-10-17_10h24.50.058,motor seq3,2024.1.5,None,2024-10-17 10h24.57.848072 +0530,
50,c,,,,,7,2,30,2,611.4262823997997,,611.4114248999394,611.4262823997997,612.4262023996562,612.4262023996562,612.4262023996562,612.4262023996562,612.4262023996562,613.4263267996721,613.4263267996721,613.8940177997574,v,0,0.46583750005811453,None,p1,001,2024-10-17_10h24.50.058,motor seq3,2024.1.5,None,2024-10-17 10h24.57.848072 +0530,
-50,x,,,,,7,3,31,0,613.9097615997307,,613.8948149997741,613.9097615997307,614.9093981999904,614.9093981999904,614.9093981999904,614.9093981999904,614.9093981999904,615.9095714995638,615.9095714995638,616.6276900996454,x,1,0.7045165998861194,None,p1,001,2024-10-17_10h24.50.058,motor seq3,2024.1.5,None,2024-10-17 10h24.57.848072 +0530,
-50,x,,,,,8,0,32,0,616.6429613996297,,616.6284476998262,616.6429613996297,617.6429672995582,617.6429672995582,617.6429672995582,617.6429672995582,617.6429672995582,618.6428066999651,618.6428066999651,619.0941612999886,x,1,0.4340459001250565,None,p1,001,2024-10-17_10h24.50.058,motor seq3,2024.1.5,None,2024-10-17 10h24.57.848072 +0530,
50,c,,,,,8,1,33,2,619.1095687998459,,619.09506519977,619.1095687998459,620.1095797996968,620.1095797996968,620.1095797996968,620.1095797996968,620.1095797996968,621.1092981998809,621.1092981998809,621.6268815998919,c,1,0.505905699916184,None,p1,001,2024-10-17_10h24.50.058,motor seq3,2024.1.5,None,2024-10-17 10h24.57.848072 +0530,
50,c,,,,,8,2,34,2,621.642896999605,,621.6277205999941,621.642896999605,622.6430094996467,622.6430094996467,622.6430094996467,622.6430094996467,622.6430094996467,623.6429777997546,623.6429777997546,624.3605844997801,c,1,0.7012927997857332,None,p1,001,2024-10-17_10h24.50.058,motor seq3,2024.1.5,None,2024-10-17 10h24.57.848072 +0530,
-150,z,,,,,8,3,35,3,624.376303399913,,624.3613543999381,624.376303399913,625.376402599737,625.376402599737,625.376402599737,625.376402599737,625.376402599737,626.3763709999621,626.3763709999621,626.8434461997822,z,1,0.46165840001776814,None,p1,001,2024-10-17_10h24.50.058,motor seq3,2024.1.5,None,2024-10-17 10h24.57.848072 +0530,
-50,x,,,,,9,0,36,0,626.8597161998041,,626.8441848997027,626.8597161998041,627.8596134996042,627.8596134996042,627.8596134996042,627.8596134996042,627.8596134996042,628.8594507998787,628.8594507998787,629.2937243999913,z,0,0.41934180026873946,None,p1,001,2024-10-17_10h24.50.058,motor seq3,2024.1.5,None,2024-10-17 10h24.57.848072 +0530,
50,c,,,,,9,1,37,2,629.3097695996985,,629.294479099568,629.3097695996985,630.3093284997158,630.3093284997158,630.3093284997158,630.3093284997158,630.3093284997158,631.2927800999023,631.2927800999023,631.6940816999413,c,1,0.387576499953866,None,p1,001,2024-10-17_10h24.50.058,motor seq3,2024.1.5,None,2024-10-17 10h24.57.848072 +0530,
-50,x,,,,,9,2,38,0,631.7096632998437,,631.6948393997736,631.7096632998437,632.7095597996376,632.7095597996376,632.7095597996376,632.7095597996376,632.7095597996376,633.7094356999733,633.7094356999733,634.3776648999192,x,1,0.6665008999407291,None,p1,001,2024-10-17_10h24.50.058,motor seq3,2024.1.5,None,2024-10-17 10h24.57.848072 +0530,
-50,x,,,,,9,3,39,0,634.3929133997299,,634.3784141996875,634.3929133997299,635.3928221999668,635.3928221999668,635.3928221999668,635.3928221999668,635.3928221999668,636.3929975996725,636.3929975996725,637.5105602997355,x,1,1.112488199956715,None,p1,001,2024-10-17_10h24.50.058,motor seq3,2024.1.5,None,2024-10-17 10h24.57.848072 +0530,
150,v,,,,,10,0,40,1,637.5264661996625,,637.5113340998068,637.5264661996625,638.5261124996468,638.5261124996468,638.5261124996468,638.5261124996468,638.5261124996468,639.5261137997732,639.5261137997732,640.8270695996471,v,1,1.2928974996320903,None,p1,001,2024-10-17_10h24.50.058,motor seq3,2024.1.5,None,2024-10-17 10h24.57.848072 +0530,
-150,z,,,,,10,1,41,3,640.8428858998232,,640.827818099875,640.8428858998232,641.842844999861,641.842844999861,641.842844999861,641.842844999861,641.842844999861,642.8425666997209,642.8425666997209,643.4603443997912,z,1,0.6011478002183139,None,p1,001,2024-10-17_10h24.50.058,motor seq3,2024.1.5,None,2024-10-17 10h24.57.848072 +0530,
-150,z,,,,,10,2,42,3,643.4762168996967,,643.4611068000086,643.4762168996967,644.4762752996758,644.4762752996758,644.4762752996758,644.4762752996758,644.4762752996758,645.476113199722,645.476113199722,646.8105183998123,z,1,1.3229918000288308,None,p1,001,2024-10-17_10h24.50.058,motor seq3,2024.1.5,None,2024-10-17 10h24.57.848072 +0530,
50,c,,,,,10,3,43,2,646.8263830998912,,646.8112774998881,646.8263830998912,647.8261515996419,647.8261515996419,647.8261515996419,647.8261515996419,647.8261515996419,648.8261037999764,648.8261037999764,649.1945824995637,v,0,0.35629389993846416,None,p1,001,2024-10-17_10h24.50.058,motor seq3,2024.1.5,None,2024-10-17 10h24.57.848072 +0530,
-150,z,,,,,11,0,44,3,649.209398899693,,649.1953392997384,649.209398899693,650.2094369996339,650.2094369996339,650.2094369996339,650.2094369996339,650.2094369996339,651.2095079999417,651.2095079999417,652.1270254999399,z,1,0.9033466000109911,None,p1,001,2024-10-17_10h24.50.058,motor seq3,2024.1.5,None,2024-10-17 10h24.57.848072 +0530,
-50,x,,,,,11,1,45,0,652.1426247996278,,652.1278566997498,652.1426247996278,653.1429073996842,653.1429073996842,653.1429073996842,653.1429073996842,653.1429073996842,654.1426144000143,654.1426144000143,654.74364769971,x,1,0.59606619970873,None,p1,001,2024-10-17_10h24.50.058,motor seq3,2024.1.5,None,2024-10-17 10h24.57.848072 +0530,
-50,x,,,,,11,2,46,0,654.759491099976,,654.7444039997645,654.759491099976,655.7596701998264,655.7596701998264,655.7596701998264,655.7596701998264,655.7596701998264,656.7595267998986,656.7595267998986,657.3605968998745,x,1,0.5888244998641312,None,p1,001,2024-10-17_10h24.50.058,motor seq3,2024.1.5,None,2024-10-17 10h24.57.848072 +0530,
-150,z,,,,,11,3,47,3,657.3764073997736,,657.3613648996688,657.3764073997736,658.3761288998649,658.3761288998649,658.3761288998649,658.3761288998649,658.3761288998649,659.3761974996887,659.3761974996887,660.0273701995611,z,1,0.6389195998199284,None,p1,001,2024-10-17_10h24.50.058,motor seq3,2024.1.5,None,2024-10-17 10h24.57.848072 +0530,
150,v,,,,,12,0,48,1,660.0428701997735,,660.0287703997456,660.0428701997735,661.042808199767,661.042808199767,661.042808199767,661.042808199767,661.042808199767,662.042859299574,662.042859299574,662.6972614997067,v,1,0.6453483002260327,None,p1,001,2024-10-17_10h24.50.058,motor seq3,2024.1.5,None,2024-10-17 10h24.57.848072 +0530,
-50,x,,,,,12,1,49,0,662.7093054996803,,662.6982295997441,662.7093054996803,663.7094459999353,663.7094459999353,663.7094459999353,663.7094459999353,663.7094459999353,664.7094135996886,664.7094135996886,665.3606959995814,x,1,0.6355293998494744,None,p1,001,2024-10-17_10h24.50.058,motor seq3,2024.1.5,None,2024-10-17 10h24.57.848072 +0530,
-150,z,,,,,12,2,50,3,665.3760878997855,,665.361453099642,665.3760878997855,666.3762669996358,666.3762669996358,666.3762669996358,666.3762669996358,666.3762669996358,667.3761253999546,667.3761253999546,667.7439120998606,z,1,0.35858160024508834,None,p1,001,2024-10-17_10h24.50.058,motor seq3,2024.1.5,None,2024-10-17 10h24.57.848072 +0530,
150,v,,,,,12,3,51,1,667.7595751998015,,667.7446578997187,667.7595751998015,668.7593759996817,668.7593759996817,668.7593759996817,668.7593759996817,668.7593759996817,669.75947539974,669.75947539974,670.2769066998735,v,1,0.5109910001046956,None,p1,001,2024-10-17_10h24.50.058,motor seq3,2024.1.5,None,2024-10-17 10h24.57.848072 +0530,
150,v,,,,,13,0,52,1,670.2927796998993,,670.2776577998884,670.2927796998993,671.2761811995879,671.2761811995879,671.2761811995879,671.2761811995879,671.2927672998048,672.2927834996954,672.2927834996954,672.8938506999984,v,1,0.5844652000814676,None,p1,001,2024-10-17_10h24.50.058,motor seq3,2024.1.5,None,2024-10-17 10h24.57.848072 +0530,
-50,x,,,,,13,1,53,0,672.9092445997521,,672.8946002996527,672.9092445997521,673.9095262996852,673.9095262996852,673.9095262996852,673.9095262996852,673.9095262996852,674.9095240999013,674.9095240999013,675.7439533998258,x,1,0.8293570000678301,None,p1,001,2024-10-17_10h24.50.058,motor seq3,2024.1.5,None,2024-10-17 10h24.57.848072 +0530,
-150,z,,,,,13,2,54,3,675.7595776999369,,675.744716799818,675.7595776999369,676.7595572997816,676.7595572997816,676.7595572997816,676.7595572997816,676.7595572997816,677.7592766997404,677.7592766997404,678.3606701996177,z,1,0.5913397003896534,None,p1,001,2024-10-17_10h24.50.058,motor seq3,2024.1.5,None,2024-10-17 10h24.57.848072 +0530,
-150,z,,,,,13,3,55,3,678.3760056998581,,678.36142189987,678.3760056998581,679.376128599979,679.376128599979,679.376128599979,679.376128599979,679.376128599979,680.3761012000032,680.3761012000032,680.8268793998286,z,1,0.4371333997696638,None,p1,001,2024-10-17_10h24.50.058,motor seq3,2024.1.5,None,2024-10-17 10h24.57.848072 +0530,
150,v,,,,,14,0,56,1,680.8679297999479,,680.8487968998961,680.8679297999479,681.8512717997655,681.8512717997655,681.8512717997655,681.8512717997655,681.8678528997116,682.8513310998678,682.8513310998678,684.0685229999945,v,1,1.2060170001350343,None,p1,001,2024-10-17_10h24.50.058,motor seq3,2024.1.5,None,2024-10-17 10h24.57.848072 +0530,
150,v,,,,,14,1,57,1,684.0844457997009,,684.0692590000108,684.0844457997009,685.0840997998603,685.0840997998603,685.0840997998603,685.0840997998603,685.0840997998603,686.0842481995933,686.0842481995933,686.75238839956,v,1,0.6608527000062168,None,p1,001,2024-10-17_10h24.50.058,motor seq3,2024.1.5,None,2024-10-17 10h24.57.848072 +0530,
-50,x,,,,,14,2,58,0,686.7678554998711,,686.7531871995889,686.7678554998711,687.767695099581,687.767695099581,687.767695099581,687.767695099581,687.767695099581,688.767650899943,688.767650899943,689.5019674999639,x,1,0.7185772997327149,None,p1,001,2024-10-17_10h24.50.058,motor seq3,2024.1.5,None,2024-10-17 10h24.57.848072 +0530,
-50,x,,,,,14,3,59,0,689.5178694999777,,689.5027076997794,689.5178694999777,690.5178567999974,690.5178567999974,690.5178567999974,690.5178567999974,690.5178567999974,691.5177306998521,691.5177306998521,692.4021197999828,x,1,0.8729706997983158,None,p1,001,2024-10-17_10h24.50.058,motor seq3,2024.1.5,None,2024-10-17 10h24.57.848072 +0530,
50,c,,,,,15,0,60,2,692.4177681999281,,692.4031024998985,692.4177681999281,693.417758599855,693.417758599855,693.417758599855,693.417758599855,693.417758599855,694.4177505997941,694.4177505997941,695.136405099649,c,1,0.7153034000657499,None,p1,001,2024-10-17_10h24.50.058,motor seq3,2024.1.5,None,2024-10-17 10h24.57.848072 +0530,
-50,x,,,,,15,1,61,0,695.1511210999452,,695.1371976998635,695.1511210999452,696.1510913996026,696.1510913996026,696.1510913996026,696.1510913996026,696.1510913996026,697.1510075000115,697.1510075000115,697.8355890996754,x,1,0.6737867998890579,None,p1,001,2024-10-17_10h24.50.058,motor seq3,2024.1.5,None,2024-10-17 10h24.57.848072 +0530,
50,c,,,,,15,2,62,2,697.8511847998016,,697.8364042998292,697.8511847998016,698.8510842998512,698.8510842998512,698.8510842998512,698.8510842998512,698.8510842998512,699.8514202996157,699.8514202996157,700.4855170999654,c,1,0.618599500041455,None,p1,001,2024-10-17_10h24.50.058,motor seq3,2024.1.5,None,2024-10-17 10h24.57.848072 +0530,
-150,z,,,,,15,3,63,3,700.5017407997511,,700.4862842997536,700.5017407997511,701.5010852999985,701.5010852999985,701.5010852999985,701.5010852999985,701.5010852999985,702.5010595996864,702.5010595996864,703.2354433997534,z,1,0.7179192998446524,None,p1,001,2024-10-17_10h24.50.058,motor seq3,2024.1.5,None,2024-10-17 10h24.57.848072 +0530,
150,v,,,,,16,0,64,1,703.2510815998539,,703.2361859995872,703.2510815998539,704.2511547999457,704.2511547999457,704.2511547999457,704.2511547999457,704.2511547999457,705.2508572000079,705.2508572000079,706.1854585995898,c,0,0.9281774000264704,None,p1,001,2024-10-17_10h24.50.058,motor seq3,2024.1.5,None,2024-10-17 10h24.57.848072 +0530,
-150,z,,,,,16,1,65,3,706.2012304998934,,706.1862338995561,706.2012304998934,707.201180699747,707.201180699747,707.201180699747,707.201180699747,707.201180699747,708.2010893998668,708.2010893998668,708.8849545996636,z,1,0.6818361999467015,None,p1,001,2024-10-17_10h24.50.058,motor seq3,2024.1.5,None,2024-10-17 10h24.57.848072 +0530,
150,v,,,,,16,2,66,1,708.9011293998919,,708.8857417996041,708.9011293998919,709.9008577996865,709.9008577996865,709.9008577996865,709.9008577996865,709.9008577996865,710.8844438996166,710.8844438996166,711.3186835995875,v,1,0.42478530015796423,None,p1,001,2024-10-17_10h24.50.058,motor seq3,2024.1.5,None,2024-10-17 10h24.57.848072 +0530,
-50,x,,,,,16,3,67,0,711.3344577997923,,711.3194298995659,711.3344577997923,712.3344146995805,712.3344146995805,712.3344146995805,712.3344146995805,712.3344146995805,713.3344452995807,713.3344452995807,713.9855802999809,x,1,0.6470276997424662,None,p1,001,2024-10-17_10h24.50.058,motor seq3,2024.1.5,None,2024-10-17 10h24.57.848072 +0530,
150,v,,,,,17,0,68,1,714.0010787998326,,713.986319499556,714.0010787998326,715.0011045997962,715.0011045997962,715.0011045997962,715.0011045997962,715.0011045997962,716.0008968999609,716.0008968999609,716.4184242999181,v,1,0.41100010043010116,None,p1,001,2024-10-17_10h24.50.058,motor seq3,2024.1.5,None,2024-10-17 10h24.57.848072 +0530,
50,c,,,,,17,1,69,2,716.4343739999458,,716.4191610999405,716.4343739999458,717.4345185998827,717.4345185998827,717.4345185998827,717.4345185998827,717.4345185998827,718.43434039969,718.43434039969,719.0185773000121,c,1,0.5814431998878717,None,p1,001,2024-10-17_10h24.50.058,motor seq3,2024.1.5,None,2024-10-17 10h24.57.848072 +0530,
50,c,,,,,17,2,70,2,719.0342507995665,,719.0202111997642,719.0342507995665,720.0344370999373,720.0344370999373,720.0344370999373,720.0344370999373,720.0344370999373,721.0344258998521,721.0344258998521,721.4520154995844,c,1,0.4051896999590099,None,p1,001,2024-10-17_10h24.50.058,motor seq3,2024.1.5,None,2024-10-17 10h24.57.848072 +0530,
-150,z,,,,,17,3,71,3,721.4677540999837,,721.4527860996313,721.4677540999837,722.4677828997374,722.4677828997374,722.4677828997374,722.4677828997374,722.4677828997374,723.4678191998973,723.4678191998973,724.0188498999923,z,1,0.5350708998739719,None,p1,001,2024-10-17_10h24.50.058,motor seq3,2024.1.5,None,2024-10-17 10h24.57.848072 +0530,
50,c,,,,,18,0,72,2,724.0343503998592,,724.0196296996437,724.0343503998592,725.0343121998012,725.0343121998012,725.0343121998012,725.0343121998012,725.0343121998012,726.0344582996331,726.0344582996331,726.6020316998474,c,1,0.5505734998732805,None,p1,001,2024-10-17_10h24.50.058,motor seq3,2024.1.5,None,2024-10-17 10h24.57.848072 +0530,
50,c,,,,,18,1,73,2,726.6175766997039,,726.6027718996629,726.6175766997039,727.6179131995887,727.6179131995887,727.6179131995887,727.6179131995887,727.6179131995887,728.6175211998634,728.6175211998634,729.2515829997137,c,1,0.6196126001887023,None,p1,001,2024-10-17_10h24.50.058,motor seq3,2024.1.5,None,2024-10-17 10h24.57.848072 +0530,
50,c,,,,,18,2,74,2,729.2674720999785,,729.2523294999264,729.2674720999785,730.2674763998948,730.2674763998948,730.2674763998948,730.2674763998948,730.2674763998948,731.2675469997339,731.2675469997339,731.7028247998096,c,1,0.4293102999217808,None,p1,001,2024-10-17_10h24.50.058,motor seq3,2024.1.5,None,2024-10-17 10h24.57.848072 +0530,
150,v,,,,,18,3,75,1,731.7174989995547,,731.7035754998215,731.7174989995547,732.7178463996388,732.7178463996388,732.7178463996388,732.7178463996388,732.7178463996388,733.717557599768,733.717557599768,734.2191494000144,v,1,0.4854986001737416,None,p1,001,2024-10-17_10h24.50.058,motor seq3,2024.1.5,None,2024-10-17 10h24.57.848072 +0530,
-150,z,,,,,19,0,76,3,734.2343432996422,,734.2199455997907,734.2343432996422,735.2343440996483,735.2343440996483,735.2343440996483,735.2343440996483,735.2343440996483,736.2345210998319,736.2345210998319,736.785265899729,z,1,0.5378573001362383,None,p1,001,2024-10-17_10h24.50.058,motor seq3,2024.1.5,None,2024-10-17 10h24.57.848072 +0530,
-150,z,,,,,19,1,77,3,736.8010723995976,,736.7860700995661,736.8010723995976,737.8010830995627,737.8010830995627,737.8010830995627,737.8010830995627,737.8010830995627,738.8011211999692,738.8011211999692,739.8019179999828,z,1,0.9836854999884963,None,p1,001,2024-10-17_10h24.50.058,motor seq3,2024.1.5,None,2024-10-17 10h24.57.848072 +0530,
150,v,,,,,19,2,78,1,739.8176737995818,,739.8026831997558,739.8176737995818,740.817587999627,740.817587999627,740.817587999627,740.817587999627,740.817587999627,741.8176921997219,741.8176921997219,743.2026621997356,v,1,1.3735556998290122,None,p1,001,2024-10-17_10h24.50.058,motor seq3,2024.1.5,None,2024-10-17 10h24.57.848072 +0530,
-50,x,,,,,19,3,79,0,743.2177764996886,,743.2034175996669,743.2177764996886,744.2179604996927,744.2179604996927,744.2179604996927,744.2179604996927,744.2179604996927,745.2178141996264,745.2178141996264,747.652002999559,x,1,2.4237546999938786,None,p1,001,2024-10-17_10h24.50.058,motor seq3,2024.1.5,None,2024-10-17 10h24.57.848072 +0530,
-150,z,,,,,20,0,80,3,747.6677396995947,,747.6527696996927,747.6677396995947,748.6676924997009,748.6676924997009,748.6676924997009,748.6676924997009,748.6676924997009,749.6675487998873,749.6675487998873,750.4853803999722,z,1,0.8133315998129547,None,p1,001,2024-10-17_10h24.50.058,motor seq3,2024.1.5,None,2024-10-17 10h24.57.848072 +0530,
150,v,,,,,20,1,81,1,750.5008421000093,,750.4861283996142,750.5008421000093,751.5010688998736,751.5010688998736,751.5010688998736,751.5010688998736,751.5010688998736,752.5009726998396,752.5009726998396,754.6527867997065,v,1,2.140250500291586,None,p1,001,2024-10-17_10h24.50.058,motor seq3,2024.1.5,None,2024-10-17 10h24.57.848072 +0530,
-150,z,,,,,20,2,82,3,754.6676523997448,,754.6536602997221,754.6676523997448,755.667781399563,755.667781399563,755.667781399563,755.667781399563,755.667781399563,756.6675259997137,756.6675259997137,757.2025045999326,x,0,0.5301100998185575,None,p1,001,2024-10-17_10h24.50.058,motor seq3,2024.1.5,None,2024-10-17 10h24.57.848072 +0530,
50,c,,,,,20,3,83,2,757.2176194000058,,757.2032571998425,757.2176194000058,758.217462899629,758.217462899629,758.217462899629,758.217462899629,758.217462899629,759.2174790999852,759.2174790999852,759.9185608997941,v,0,0.6934619997628033,None,p1,001,2024-10-17_10h24.50.058,motor seq3,2024.1.5,None,2024-10-17 10h24.57.848072 +0530,
-150,z,,,,,21,0,84,3,759.9342791996896,,759.9193136999384,759.9342791996896,760.9344390998594,760.9344390998594,760.9344390998594,760.9344390998594,760.9344390998594,761.9345594998449,761.9345594998449,762.33528739959,z,1,0.38747210009023547,None,p1,001,2024-10-17_10h24.50.058,motor seq3,2024.1.5,None,2024-10-17 10h24.57.848072 +0530,
50,c,,,,,21,1,85,2,762.3510678997263,,762.3360443999991,762.3510678997263,763.3510482995771,763.3510482995771,763.3510482995771,763.3510482995771,763.3510482995771,764.3510364997201,764.3510364997201,765.052358799614,c,1,0.6844656001776457,None,p1,001,2024-10-17_10h24.50.058,motor seq3,2024.1.5,None,2024-10-17 10h24.57.848072 +0530,
50,c,,,,,21,2,86,2,765.0675044995733,,765.0537279997952,765.0675044995733,766.0676841000095,766.0676841000095,766.0676841000095,766.0676841000095,766.0676841000095,767.0677604996599,767.0677604996599,767.5353688998148,c,1,0.4533879002556205,None,p1,001,2024-10-17_10h24.50.058,motor seq3,2024.1.5,None,2024-10-17 10h24.57.848072 +0530,
150,v,,,,,21,3,87,1,767.5513100996614,,767.5361372996122,767.5513100996614,768.550995499827,768.550995499827,768.550995499827,768.550995499827,768.550995499827,769.5511564998887,769.5511564998887,770.1516302996315,v,1,0.5847282996401191,None,p1,001,2024-10-17_10h24.50.058,motor seq3,2024.1.5,None,2024-10-17 10h24.57.848072 +0530,
-150,z,,,,,22,0,88,3,770.1676648999564,,770.1526882997714,770.1676648999564,771.1676077996381,771.1676077996381,771.1676077996381,771.1676077996381,771.1676077996381,772.1676854998805,772.1676854998805,772.635062399786,z,1,0.45086719980463386,None,p1,001,2024-10-17_10h24.50.058,motor seq3,2024.1.5,None,2024-10-17 10h24.57.848072 +0530,
-50,x,,,,,22,1,89,0,772.6512316996232,,772.6358294999227,772.6512316996232,773.6510341996327,773.6510341996327,773.6510341996327,773.6510341996327,773.6510341996327,774.6507260999642,774.6507260999642,775.268654699903,x,1,0.6013638000003994,None,p1,001,2024-10-17_10h24.50.058,motor seq3,2024.1.5,None,2024-10-17 10h24.57.848072 +0530,
150,v,,,,,22,2,90,1,775.2846444998868,,775.2696268996224,775.2846444998868,776.2843957999721,776.2843957999721,776.2843957999721,776.2843957999721,776.2843957999721,777.2840776997618,777.2840776997618,778.168740299996,v,1,0.8775945999659598,None,p1,001,2024-10-17_10h24.50.058,motor seq3,2024.1.5,None,2024-10-17 10h24.57.848072 +0530,
-150,z,,,,,22,3,91,3,778.1842821999453,,778.1694948999211,778.1842821999453,779.1843624999747,779.1843624999747,779.1843624999747,779.1843624999747,779.1843624999747,780.1844465998001,780.1844465998001,780.7184521998279,z,1,0.5231976001523435,None,p1,001,2024-10-17_10h24.50.058,motor seq3,2024.1.5,None,2024-10-17 10h24.57.848072 +0530,
