delay,freq,condition,trials.thisRepN,trials.thisTrialN,trials.thisN,trials.thisIndex,thisRow.t,notes,trial.started,polygon.started,polygon_2.started,key_resp.started,polygon.stopped,trial.stopped,key_resp.keys,key_resp.rt,key_resp.duration,beep.started,sound_1.started,sound_1.stopped,beep.stopped,response.started,text.started,textbox.started,button.started,response.stopped,textbox.text,button.numClicks,button.timesOn,button.timesOff,polygon_2.stopped,participant,session,date,expName,psychopyVersion,frameRate,expStart
0.7,1000,exp,0,0,0,11,0.0286440000054426,,0.0218046999943908,0.0286440000054426,1.0118281999894,1.0118281999894,1.0283414000005,1.55046979998588,space,0.518447600014042,None,1.55578979998245,2.26180636664891,2.59249690000433,2.55946769998991,2.55949660000624,2.59249690000433,2.59249690000433,2.59249690000433,9.21860110000125,300,1,[6.657458900008351],[6.657465399999637],,p2,1,2024-11-14_13h35.22.855,intentional binding,2024.1.5,None,2024-11-14 13h35.33.887253 +0530
0.7,400,unexp,0,1,1,2,9.2334378999949,,9.22696489997907,9.2334378999949,10.2333665000042,10.2333665000042,10.2333665000042,10.8341989000037,space,0.594965900003444,None,10.8359861999925,11.5504045666642,11.8602448999882,11.8493795999966,11.8494006999827,11.8602448999882,11.8602448999882,11.8602448999882,14.5793031000067,300,1,[2.7288759000075515],[2.7288813999912236],,p2,1,2024-11-14_13h35.22.855,intentional binding,2024.1.5,None,2024-11-14 13h35.33.887253 +0530
0.4,1000,exp,0,2,2,4,14.5950367999903,,14.5828486999962,14.5950367999903,15.5947760999843,15.5947760999843,15.5947760999843,15.9129195999994,space,0.310028799984138,None,15.9149117000052,16.3285618666598,16.6418804999848,16.6294998999801,16.6295198999869,16.6418804999848,16.6418804999848,16.6418804999848,18.545710699982,400,1,[1.9150054999918211],[1.9150132999930065],,p2,1,2024-11-14_13h35.22.855,intentional binding,2024.1.5,None,2024-11-14 13h35.33.887253 +0530
0.4,1000,exp,0,3,3,10,18.5604480000038,,18.5493583999923,18.5604480000038,19.5601940999914,19.5601940999914,19.5601940999914,20.0446600999858,space,0.47545299999183,None,20.0464019000065,20.4601153666483,20.7700731999939,20.7593633999932,20.7593852999853,20.7700731999939,20.7700731999939,20.7700731999939,23.1400497999857,300,1,[2.379578899999615],[2.379584699985571],,p2,1,2024-11-14_13h35.22.855,intentional binding,2024.1.5,None,2024-11-14 13h35.33.887253 +0530
0.1,1000,exp,0,4,4,3,23.154885099997,,23.1435384000069,23.154885099997,24.1547119999886,24.1547119999886,24.1547119999886,24.6725177000044,space,0.509011200017994,None,24.6746189999976,24.7878298666658,25.1016488999885,25.0894624000066,25.0894818999805,25.1016488999885,25.1016488999885,25.1016488999885,29.438969299983,500,1,[4.348389200022211],[4.348395200009691],,p2,1,2024-11-14_13h35.22.855,intentional binding,2024.1.5,None,2024-11-14 13h35.33.887253 +0530
0.4,400,unexp,0,5,5,1,29.4531841999851,,29.4424176999892,29.4531841999851,30.4532583999971,30.4532583999971,30.4532583999971,30.8705011999991,space,0.41515580000123,None,30.8722389999893,31.2865524666597,31.611548099987,31.5893686999916,31.5893852000008,31.611548099987,31.611548099987,31.611548099987,37.4463948000048,500,1,[5.855856700014556],[5.855862900003558],,p2,1,2024-11-14_13h35.22.855,intentional binding,2024.1.5,None,2024-11-14 13h35.33.887253 +0530
0.1,400,unexp,0,6,6,0,37.4616032000049,,37.4498440999887,37.4616032000049,38.4617126999947,38.4617126999947,38.4617126999947,38.7795210999902,space,0.310268799978076,None,38.7812929000065,38.8952083666557,39.2006263999792,39.1893615000008,39.1893802999984,39.2006263999792,39.2006263999792,39.2006263999792,42.1845555999898,500,1,[2.994082899997011],[2.994087800005218],,p2,1,2024-11-14_13h35.22.855,intentional binding,2024.1.5,None,2024-11-14 13h35.33.887253 +0530
0.7,1000,exp,0,7,7,8,42.2004422000027,,42.1880365999823,42.2004422000027,43.2004487999948,43.2004487999948,43.2004487999948,43.6011855999823,space,0.393652900005691,None,43.6029343999981,44.3169310666601,44.6419630000019,44.6194192999974,44.6194374999905,44.6419630000019,44.6419630000019,44.6419630000019,47.926076600008,300,1,[3.3056319000024814],[3.305637699988438],,p2,1,2024-11-14_13h35.22.855,intentional binding,2024.1.5,None,2024-11-14 13h35.33.887253 +0530
0.1,1000,exp,0,8,8,6,47.9421381999855,,47.9295706999837,47.9421381999855,48.9418280999817,48.9418280999817,48.9418280999817,50.1763473000028,space,1.22531249999884,None,50.1781060000067,50.291819566661,50.6007743999944,50.5893349999969,50.5893570999906,50.6007743999944,50.6007743999944,50.6007743999944,53.1527172999922,300,1,[2.5622779999976046],[2.5622845999896526],49.9421342999849,p2,1,2024-11-14_13h35.22.855,intentional binding,2024.1.5,None,2024-11-14 13h35.33.887253 +0530
0.1,1000,exp,0,9,9,9,53.1670003999898,,53.1561657999991,53.1670003999898,54.1670453999832,54.1670453999832,54.1670453999832,56.8183645999816,space,2.63484020001488,None,56.8203386999958,56.9337502666497,57.240409799997,57.2292151000002,57.2292336999963,57.240409799997,57.240409799997,57.240409799997,59.474655500002,900,1,[2.2444121000007726],[2.2444172000105027],55.166980399983,p2,1,2024-11-14_13h35.22.855,intentional binding,2024.1.5,None,2024-11-14 13h35.33.887253 +0530
0.4,1000,exp,0,11,11,7,62.6347815000045,,62.623025399982,62.6347815000045,63.6346977000067,63.6346977000067,63.6346977000067,64.1523570999852,space,0.503755300014745,None,64.1542371999822,64.5679873666707,64.8818743999873,64.8693970000022,64.8694164000044,64.8818743999873,64.8818743999873,64.8818743999873,66.7162943999865,300,1,[1.8458459999819752],[1.8458510999917053],,p2,1,2024-11-14_13h35.22.855,intentional binding,2024.1.5,None,2024-11-14 13h35.33.887253 +0530
0.1,400,unexp,1,0,12,0,66.7319228999841,,66.7197802999872,66.7319228999841,67.7323738999839,67.7323738999839,67.7323738999839,68.483250099991,space,0.745843699987745,None,68.4853363999864,68.5988505666649,68.9236449000018,68.8993126999994,68.8993308999925,68.9236449000018,68.9236449000018,68.9236449000018,72.8770008999854,600,1,[3.976639400003478],[3.9766447999863885],,p2,1,2024-11-14_13h35.22.855,intentional binding,2024.1.5,None,2024-11-14 13h35.33.887253 +0530
0.7,400,unexp,1,1,13,2,72.8922486999945,,72.8804593999812,72.8922486999945,73.8918112999818,73.8918112999818,73.8918112999818,74.2598527999944,space,0.360245200019563,None,74.2616888000048,74.9755465666569,75.3003771000076,75.2792819000024,75.2793001999962,75.3003771000076,75.3003771000076,75.3003771000076,78.4181169999938,900,1,[3.137458500015782],[3.137471900001401],,p2,1,2024-11-14_13h35.22.855,intentional binding,2024.1.5,None,2024-11-14 13h35.33.887253 +0530
0.7,1000,exp,1,2,14,5,78.4339755999972,,78.4216087999812,78.4339755999972,79.43401919998,79.43401919998,79.43401919998,81.3513732999854,space,1.90401490000659,None,81.35318559999,82.0670713666516,82.3919701999985,82.3695102999918,82.3695302999986,82.3919701999985,82.3919701999985,82.3919701999985,85.4933606999984,999,1,[3.1223704000003636],[3.122383500012802],80.4337374999886,p2,1,2024-11-14_13h35.22.855,intentional binding,2024.1.5,None,2024-11-14 13h35.33.887253 +0530
0.4,400,unexp,1,3,15,1,85.5087929999863,,85.4969666999823,85.5087929999863,86.5087713999965,86.5087713999965,86.5087713999965,86.6094338999828,space,0.0932014999852981,None,86.6111648000078,87.0251599666701,87.336407099996,87.3256379999802,87.325657599984,87.336407099996,87.336407099996,87.336407099996,89.8212824999937,400,1,[2.4945590999850538],[2.4945643999963067],,p2,1,2024-11-14_13h35.22.855,intentional binding,2024.1.5,None,2024-11-14 13h35.33.887253 +0530
0.1,1000,exp,1,4,16,3,89.8363106999896,,89.8248067999957,89.8363106999896,90.8365983999975,90.8365983999975,90.8365983999975,91.90382029998,space,1.05677539997851,None,91.9057362999883,92.0196295666722,92.3337675999792,92.3191581999999,92.3191798999906,92.3337675999792,92.3337675999792,92.3337675999792,94.7689506000024,100,1,[2.4487047999864444],[2.4487112000060733],91.836220600002,p2,1,2024-11-14_13h35.22.855,intentional binding,2024.1.5,None,2024-11-14 13h35.33.887253 +0530
0.1,1000,exp,1,5,17,6,94.7836093999795,,94.7724842999887,94.7836093999795,95.7834496999858,95.7834496999858,95.7834496999858,96.1010408999864,space,0.310132700018585,None,96.1027806999919,96.2169832666734,96.5418405999953,96.5191673999943,96.5191859999904,96.5418405999953,96.5418405999953,96.5418405999953,98.643081999995,400,1,[2.122745600005146],[2.1227557999955025],,p2,1,2024-11-14_13h35.22.855,intentional binding,2024.1.5,None,2024-11-14 13h35.33.887253 +0530
0.4,1000,exp,1,6,18,10,98.658740999992,,98.6465599999938,98.658740999992,99.6588427999814,99.6588427999814,99.6588427999814,99.6929750999843,space,0.0184929999813903,None,99.6951326999988,100.10851236666,100.433623399993,100.409183299984,100.409202799987,100.433623399993,100.433623399993,100.433623399993,102.551020399987,300,1,[2.140777499997057],[2.1407825000060257],,p2,1,2024-11-14_13h35.22.855,intentional binding,2024.1.5,None,2024-11-14 13h35.33.887253 +0530
0.7,1000,exp,1,7,19,11,102.566969499982,,102.554671799997,102.566969499982,103.567218399985,103.567218399985,103.567218399985,104.084629299992,space,0.505868799984455,None,104.08637569999,104.800276166647,105.110175499984,105.09909969999,105.099121499981,105.110175499984,105.110175499984,105.110175499984,107.279939300002,200,1,[2.1797234999830835],[2.1797302000049967],,p2,1,2024-11-14_13h35.22.855,intentional binding,2024.1.5,None,2024-11-14 13h35.33.887253 +0530
0.4,1000,exp,1,8,20,4,107.294615299994,,107.283513600007,107.294615299994,108.295130299986,108.295130299986,108.295130299986,109.146629499999,space,0.843194300017785,None,109.148454899987,109.561336966672,109.875319899991,109.859172600001,109.859193499986,109.875319899991,109.875319899991,109.875319899991,112.493209499982,200,1,[2.6326218000031076],[2.6326352000178304],,p2,1,2024-11-14_13h35.22.855,intentional binding,2024.1.5,None,2024-11-14 13h35.33.887253 +0530
0.1,1000,exp,1,9,21,9,112.508598399989,,112.496771000006,112.508598399989,113.50852079998,113.50852079998,113.50852079998,113.975833999983,space,0.46339029999217,None,113.977598900005,114.091903066674,114.400471400004,114.389230300003,114.389251099987,114.400471400004,114.400471400004,114.400471400004,117.769421699981,100,1,[3.3791017000039574],[3.3791082000243478],,p2,1,2024-11-14_13h35.22.855,intentional binding,2024.1.5,None,2024-11-14 13h35.33.887253 +0530
0.7,1000,exp,1,10,22,8,117.783604700002,,117.772925600002,117.783604700002,118.783567699982,118.783567699982,118.783567699982,120.701111799979,space,1.90201839999645,None,120.702836799988,121.416830466657,121.741841099982,121.719161399989,121.719181099994,121.741841099982,121.741841099982,121.741841099982,128.5097045,400,1,[6.7890334999829065],[6.789038599992637],119.783524400002,p2,1,2024-11-14_13h35.22.855,intentional binding,2024.1.5,None,2024-11-14 13h35.33.887253 +0530
0.4,1000,exp,1,11,23,7,128.525065099995,,128.513343800005,128.525065099995,129.525203600002,129.525203600002,129.525203600002,131.209340000001,space,1.66856289998395,None,131.211088899989,131.616817766659,131.942154399992,131.919143100007,131.919162699982,131.942154399992,131.942154399992,131.942154399992,141.592509599985,400,1,[9.672249600000214],[9.67225440000766],130.52508989998,p2,1,2024-11-14_13h35.22.855,intentional binding,2024.1.5,None,2024-11-14 13h35.33.887253 +0530
0.7,1000,exp,2,0,24,8,141.608245299984,,141.59599609999,141.608245299984,142.608524699986,142.608524699986,142.608524699986,143.359484699991,space,0.73695379999117,None,143.361276399984,144.075235366651,144.400132999988,144.379076299985,144.379095499986,144.400132999988,144.400132999988,144.400132999988,147.118687899987,900,1,[2.7384821999876294],[2.738488499977393],,p2,1,2024-11-14_13h35.22.855,intentional binding,2024.1.5,None,2024-11-14 13h35.33.887253 +0530
0.4,1000,exp,2,1,25,4,147.133353499987,,147.122521299985,147.133353499987,148.13342529998,148.13342529998,148.13342529998,149.184405000007,space,1.03523719997611,None,149.186440999998,149.600176366661,149.909260999993,149.899065000005,149.899084100005,149.909260999993,149.909260999993,149.909260999993,152.479231200006,200,1,[2.5789952000195626],[2.5790007000032347],149.133390000003,p2,1,2024-11-14_13h35.22.855,intentional binding,2024.1.5,None,2024-11-14 13h35.33.887253 +0530
0.7,400,unexp,2,2,26,2,152.494410899992,,152.482769599999,152.494410899992,153.494403399993,153.494403399993,153.494403399993,154.528857800004,space,1.02771259998553,None,154.530622399994,155.244275866662,155.558489999996,155.539026299986,155.539045599988,155.558489999996,155.558489999996,155.558489999996,157.143618200003,999,1,[1.6034178000118118],[1.6034230000223033],154.494635799987,p2,1,2024-11-14_13h35.22.855,intentional binding,2024.1.5,None,2024-11-14 13h35.33.887253 +0530
0.1,1000,exp,2,3,27,3,157.158693100006,,157.147184300004,157.158693100006,158.158530299988,158.158530299988,158.158530299988,159.092998399981,space,0.917840100009926,None,159.094799899991,159.20849246666,159.533556199982,159.509143200004,159.509162999981,159.533556199982,159.533556199982,159.533556199982,161.317844400008,400,1,[1.8075035999936517],[1.8075142000161577],,p2,1,2024-11-14_13h35.22.855,intentional binding,2024.1.5,None,2024-11-14 13h35.33.887253 +0530
0.1,1000,exp,2,4,28,6,161.33358429998,,161.3212948,161.33358429998,162.333664899983,162.333664899983,162.333664899983,162.63449929998,space,0.299196999985725,None,162.636256400001,162.75008386665,163.059755399998,163.049015099998,163.049032399984,163.059755399998,163.059755399998,163.059755399998,164.39698759999,100,1,[1.3468042000022251],[1.346810099988943],,p2,1,2024-11-14_13h35.22.855,intentional binding,2024.1.5,None,2024-11-14 13h35.33.887253 +0530
0.4,1000,exp,2,5,29,10,164.411386399996,,164.400757099997,164.411386399996,165.411213999992,165.411213999992,165.411213999992,166.178584999987,space,0.753310699976282,None,166.1806239,166.594672466661,166.908162499982,166.889047100005,166.889065299998,166.908162499982,166.908162499982,166.908162499982,169.526482199988,200,1,[2.6362071000039577],[2.6362217999994755],,p2,1,2024-11-14_13h35.22.855,intentional binding,2024.1.5,None,2024-11-14 13h35.33.887253 +0530
0.1,400,unexp,2,6,30,0,169.54182709998,,169.529961499997,169.54182709998,170.542045099981,170.542045099981,170.542045099981,171.059228400001,space,0.508964700013166,None,171.06096469998,171.175137266666,171.500010399992,171.478983299981,171.47900349999,171.500010399992,171.500010399992,171.500010399992,174.600877799996,400,1,[3.1207789999898523],[3.120783999998821],,p2,1,2024-11-14_13h35.22.855,intentional binding,2024.1.5,None,2024-11-14 13h35.33.887253 +0530
0.4,1000,exp,2,7,31,7,174.616830799991,,174.604367299995,174.616830799991,175.616749599983,175.616749599983,175.616749599983,175.667716199998,space,0.0358886999893002,None,175.66959429998,176.083540966651,176.390015299985,176.378941200004,176.378959299997,176.390015299985,176.390015299985,176.390015299985,178.091090100002,500,1,[1.7110537999833468],[1.7110684999788646],,p2,1,2024-11-14_13h35.22.855,intentional binding,2024.1.5,None,2024-11-14 13h35.33.887253 +0530
0.1,1000,exp,2,8,32,9,178.106487499987,,178.094548099994,178.106487499987,179.106694199989,179.106694199989,179.106694199989,179.857778200007,space,0.73681430000579,None,179.859536400007,179.973267766651,180.279843900003,180.269178499992,180.269196999987,180.279843900003,180.279843900003,180.279843900003,183.414117299981,200,1,[3.1437137000029907],[3.143724299996393],,p2,1,2024-11-14_13h35.22.855,intentional binding,2024.1.5,None,2024-11-14 13h35.33.887253 +0530
0.7,1000,exp,2,9,33,5,183.430018399988,,183.417966499983,183.430018399988,184.429835499992,184.429835499992,184.429835499992,184.681190100004,space,0.243646499991883,None,184.68294269999,185.396318266667,185.721330500004,185.699024800007,185.699044699984,185.721330500004,185.721330500004,185.721330500004,187.540096399985,990,1,[1.8400078999984544],[1.8400148999935482],,p2,1,2024-11-14_13h35.22.855,intentional binding,2024.1.5,None,2024-11-14 13h35.33.887253 +0530
0.4,400,unexp,2,10,34,1,187.555070500006,,187.543581799982,187.555070500006,188.554893699999,188.554893699999,188.554893699999,189.622212199989,space,1.06106090001413,None,189.623985299986,190.038087566649,190.363354400004,190.339052700001,190.339072300005,190.363354400004,190.363354400004,190.363354400004,192.081292899995,500,1,[1.7411378000106197],[1.7411442000011448],189.5549054,p2,1,2024-11-14_13h35.22.855,intentional binding,2024.1.5,None,2024-11-14 13h35.33.887253 +0530
0.7,1000,exp,2,11,35,11,192.096305399988,,192.084812799993,192.096305399988,193.096578700002,193.096578700002,193.096578700002,194.230741000007,space,1.11885339999571,None,194.232541899983,194.946511666673,195.271440399985,195.249304800003,195.249322599993,195.271440399985,195.271440399985,195.271440399985,197.489535500004,999,1,[2.239152299996931],[2.2391591999912634],194.096497799997,p2,1,2024-11-14_13h35.22.855,intentional binding,2024.1.5,None,2024-11-14 13h35.33.887253 +0530
0.1,1000,exp,3,0,36,9,197.504985000007,,197.493026399985,197.504985000007,198.504727699998,198.504727699998,198.504727699998,198.755689499987,space,0.249485200009076,None,198.757456499996,198.871491266651,199.179711100005,199.168921200006,199.168940699979,199.179711100005,199.179711100005,199.179711100005,202.330654999998,200,1,[3.1605879999988247],[3.160593599983258],,p2,1,2024-11-14_13h35.22.855,intentional binding,2024.1.5,None,2024-11-14 13h35.33.887253 +0530
0.1,400,unexp,3,1,37,0,202.346548000001,,202.334211599984,202.346548000001,203.346828799986,203.346828799986,203.346828799986,205.497497899982,space,2.14451509999344,None,205.499262199999,205.613026766663,205.919641699991,205.908846300008,205.908866699989,205.919641699991,205.919641699991,205.919641699991,208.038533999992,100,1,[2.128584399993997],[2.1285910999868065],204.346247199981,p2,1,2024-11-14_13h35.22.855,intentional binding,2024.1.5,None,2024-11-14 13h35.33.887253 +0530
0.4,400,unexp,3,2,38,1,208.052825099992,,208.042182100005,208.052825099992,209.052934000007,209.052934000007,209.052934000007,210.786514599982,space,1.72826220002025,None,210.788302400004,211.202719066674,211.510134499986,211.498986399994,211.499003499979,211.510134499986,211.510134499986,211.510134499986,214.744420999981,400,1,[3.2441868000023533],[3.244196900021052],210.05266289998,p2,1,2024-11-14_13h35.22.855,intentional binding,2024.1.5,None,2024-11-14 13h35.33.887253 +0530
0.7,1000,exp,3,3,39,11,214.75996559998,,214.748066200002,214.75996559998,215.759798399988,215.759798399988,215.759798399988,215.877523200004,space,None,None,215.880994699983,216.593196566657,216.899650899984,216.888962199999,216.888979699987,216.899650899984,216.899650899984,216.899650899984,218.267113299982,999,1,[1.3770859999931417],[1.377090900001349],,p2,1,2024-11-14_13h35.22.855,intentional binding,2024.1.5,None,2024-11-14 13h35.33.887253 +0530
0.7,1000,exp,3,4,40,5,218.282668200001,,218.270633299981,218.282668200001,219.282688899984,219.282688899984,219.282688899984,220.250310400006,space,0.964851200027624,None,220.252027499984,220.966112366649,221.291228999995,221.268842899997,221.268861599994,221.291228999995,221.291228999995,221.291228999995,223.341744200006,880,1,[2.0718628000176977],[2.071867899998324],,p2,1,2024-11-14_13h35.22.855,intentional binding,2024.1.5,None,2024-11-14 13h35.33.887253 +0530
0.7,1000,exp,3,5,41,8,223.358072400006,,223.345248400001,223.358072400006,224.357878399984,224.357878399984,224.357878399984,225.42555689998,space,1.0565612000064,None,225.427292499982,226.141142366662,226.449590599979,226.438761900004,226.438779799995,226.449590599979,226.449590599979,226.449590599979,228.933608699997,999,1,[2.493658899998991],[2.4936636999773327],225.358010299999,p2,1,2024-11-14_13h35.22.855,intentional binding,2024.1.5,None,2024-11-14 13h35.33.887253 +0530
0.1,1000,exp,3,6,42,6,228.949462199991,,228.937161099981,228.949462199991,229.949291700003,229.949291700003,229.949291700003,230.467151299992,space,0.516659699991578,None,230.469138399989,230.582864866654,230.889635200001,230.878812599985,230.878829199995,230.889635200001,230.889635200001,230.889635200001,232.507001599995,300,1,[1.6269993000023533],[1.6270094999927096],,p2,1,2024-11-14_13h35.22.855,intentional binding,2024.1.5,None,2024-11-14 13h35.33.887253 +0530
0.1,1000,exp,3,7,43,3,232.522685899981,,232.510466499982,232.522685899981,233.522588399996,233.522588399996,233.522588399996,234.290269199992,space,0.752253299986478,None,234.292010699981,234.406214866675,234.730752300005,234.708916899981,234.708935700008,234.730752300005,234.730752300005,234.730752300005,236.6152038,300,1,[1.9052719000028446],[1.9052768000110518],,p2,1,2024-11-14_13h35.22.855,intentional binding,2024.1.5,None,2024-11-14 13h35.33.887253 +0530
0.7,400,unexp,3,8,44,2,236.630980599992,,236.6187202,236.630980599992,237.630886600004,237.630886600004,237.630886600004,237.982420999993,space,0.345346499991138,None,237.984356200002,238.697551066671,239.022665900004,238.998882499989,238.998902399995,239.022665900004,239.022665900004,239.022665900004,240.407314799988,800,1,[1.4072657999931835],[1.4072801999864168],,p2,1,2024-11-14_13h35.22.855,intentional binding,2024.1.5,None,2024-11-14 13h35.33.887253 +0530
0.4,1000,exp,3,9,45,7,240.422785300005,,240.410812599992,240.422785300005,241.422739300004,241.422739300004,241.422739300004,242.973300599988,space,1.54279609999503,None,242.975068,243.389491266662,243.699094899988,243.688793999987,243.688812899985,243.699094899988,243.699094899988,243.699094899988,245.152449099987,500,1,[1.4624970000004396],[1.4625039999955334],242.422413599998,p2,1,2024-11-14_13h35.22.855,intentional binding,2024.1.5,None,2024-11-14 13h35.33.887253 +0530
0.4,1000,exp,3,10,46,10,245.166803,,245.155895300006,245.166803,246.167569099984,246.167569099984,246.167569099984,246.851271399995,space,0.666837099997792,None,246.85305049998,247.266904466673,247.580751700007,247.568856600003,247.568874699995,247.580751700007,247.580751700007,247.580751700007,249.23206509999,400,1,[1.6619970999890938],[1.6620074000093155],,p2,1,2024-11-14_13h35.22.855,intentional binding,2024.1.5,None,2024-11-14 13h35.33.887253 +0530
0.4,1000,exp,3,11,47,4,249.247641900001,,249.235695899988,249.247641900001,250.247639799985,250.247639799985,250.247639799985,250.34812119999,space,None,None,250.349876199994,250.764436266651,251.069436899998,251.058727099997,251.058744499984,251.069436899998,251.069436899998,251.069436899998,252.503734900005,500,1,[1.4437238000100479],[1.4437341000011656],,p2,1,2024-11-14_13h35.22.855,intentional binding,2024.1.5,None,2024-11-14 13h35.33.887253 +0530
0.4,1000,exp,4,0,48,7,252.51936939999,,252.507291299989,252.51936939999,253.519284499984,253.519284499984,253.519284499984,254.654179400008,space,1.11817929998506,None,254.655997199996,255.06970336667,255.379778600007,255.368841099989,255.368861700001,255.379778600007,255.379778600007,255.379778600007,257.515668000007,600,1,[2.145680399989942],[2.145687199983513],254.519448100007,p2,1,2024-11-14_13h35.22.855,intentional binding,2024.1.5,None,2024-11-14 13h35.33.887253 +0530
0.1,400,unexp,4,1,49,0,257.530446399993,,257.519178799994,257.530446399993,258.530432700005,258.530432700005,258.530432700005,258.897884699982,space,0.361628600017866,None,258.899722000002,259.013657566659,259.327588099986,259.308758200001,259.308775599988,259.327588099986,259.327588099986,259.327588099986,262.695444699988,200,1,[3.3854776000080165],[3.385488100000657],,p2,1,2024-11-14_13h35.22.855,intentional binding,2024.1.5,None,2024-11-14 13h35.33.887253 +0530
0.7,400,unexp,4,2,50,2,262.711027699988,,262.698883300007,262.711027699988,263.711359000008,263.711359000008,263.711359000008,263.728666299983,space,0.0085724999953527,None,263.73071449998,264.44439886665,264.749191599985,264.738743399997,264.738762099994,264.749191599985,264.749191599985,264.749191599985,268.833675899979,400,1,[4.093675900017843],[4.09368620000896],,p2,1,2024-11-14_13h35.22.855,intentional binding,2024.1.5,None,2024-11-14 13h35.33.887253 +0530
0.1,1000,exp,4,3,51,6,268.849203099991,,268.8373517,268.849203099991,269.849170300004,269.849170300004,269.849170300004,270.250226200005,space,0.388516000006348,None,270.251973599981,270.365885966665,270.690859199996,270.668802300002,270.668821700005,270.690859199996,270.690859199996,270.690859199996,272.607948399993,200,1,[1.938122799998382],[1.938127799978247],,p2,1,2024-11-14_13h35.22.855,intentional binding,2024.1.5,None,2024-11-14 13h35.33.887253 +0530
0.7,1000,exp,4,4,52,8,272.624557000003,,272.611448199983,272.624557000003,273.624217899982,273.624217899982,273.624217899982,273.991158099991,space,0.3642952000082,None,273.99285129999,274.70734196666,275.032449699997,275.0087489,275.008767699997,275.032449699997,275.032449699997,275.032449699997,277.784020699997,700,1,[2.7740232999785803],[2.774033399997279],,p2,1,2024-11-14_13h35.22.855,intentional binding,2024.1.5,None,2024-11-14 13h35.33.887253 +0530
0.1,1000,exp,4,5,53,9,277.799438699993,,277.787535399984,277.799438699993,278.799313199997,278.799313199997,278.799313199997,279.133685499983,space,0.326034400000935,None,279.135399799998,279.249259566659,279.559477400006,279.548794100003,279.548814199981,279.559477400006,279.559477400006,279.559477400006,281.429052599997,200,1,[1.8791923000244424],[1.8791984000126831],,p2,1,2024-11-14_13h35.22.855,intentional binding,2024.1.5,None,2024-11-14 13h35.33.887253 +0530
0.4,400,unexp,4,6,54,1,281.443844199996,,281.432569099998,281.443844199996,282.443759199989,282.443759199989,282.443759199989,283.59457299998,space,1.14188309997553,None,283.596344399994,284.010402766671,284.324568699987,284.308698000008,284.308717699983,284.324568699987,284.324568699987,284.324568699987,286.410126000002,300,1,[2.1003390999976546],[2.1003504999971483],283.443550600001,p2,1,2024-11-14_13h35.22.855,intentional binding,2024.1.5,None,2024-11-14 13h35.33.887253 +0530
0.4,1000,exp,4,7,55,10,286.424915699987,,286.413632999989,286.424915699987,287.424507299991,287.424507299991,287.424507299991,288.792085599998,space,1.36587700000382,None,288.793813700002,289.20787836667,289.532764300005,289.508622399997,289.508641099994,289.532764300005,289.532764300005,289.532764300005,291.383603599999,300,1,[1.8738890999811701],[1.8738995000021532],288.424756599998,p2,1,2024-11-14_13h35.22.855,intentional binding,2024.1.5,None,2024-11-14 13h35.33.887253 +0530
0.7,1000,exp,4,8,56,11,291.399514299992,,291.387136300007,291.399514299992,292.399424500007,292.399424500007,292.399424500007,293.350305800006,space,0.9368625000061,None,293.352043399995,294.065953066664,294.390968399995,294.368705600005,294.36872519998,294.390968399995,294.390968399995,294.390968399995,297.025681700004,980,1,[2.655774899991229],[2.6557851000106893],,p2,1,2024-11-14_13h35.22.855,intentional binding,2024.1.5,None,2024-11-14 13h35.33.887253 +0530
0.4,1000,exp,4,9,57,4,297.041220099985,,297.0294039,297.041220099985,298.041065700003,298.041065700003,298.041065700003,300.241835199995,space,2.18739579999237,None,300.243564999982,300.65780546665,300.969385599979,300.958723699994,300.958743399999,300.969385599979,300.969385599979,300.969385599979,303.987915599981,800,1,[3.0280399000039324],[3.0280467999982648],299.041097799985,p2,1,2024-11-14_13h35.22.855,intentional binding,2024.1.5,None,2024-11-14 13h35.33.887253 +0530
0.1,1000,exp,4,10,58,3,304.002315599995,,303.991408600006,304.002315599995,305.002444199985,305.002444199985,305.002444199985,305.670141899987,space,0.661441200005356,None,305.6719018,305.785311266667,306.099497999996,306.08871109999,306.088732000004,306.099497999996,306.099497999996,306.099497999996,308.818220899993,100,1,[2.728428799979156],[2.728434999997262],,p2,1,2024-11-14_13h35.22.855,intentional binding,2024.1.5,None,2024-11-14 13h35.33.887253 +0530
0.7,1000,exp,4,11,59,5,308.832922500005,,308.821735799982,308.832922500005,309.832932199992,309.832932199992,309.832932199992,311.383520999982,space,1.54181970001082,None,311.385222099983,312.099299466649,312.409417399991,312.39860439999,312.398622999986,312.409417399991,312.409417399991,312.409417399991,315.662454200006,700,1,[3.2627510000020266],[3.2627575999940746],310.832769000001,p2,1,2024-11-14_13h35.22.855,intentional binding,2024.1.5,None,2024-11-14 13h35.33.887253 +0530
0.4,1000,exp,5,0,60,10,315.677173500007,,315.666042500001,315.677173500007,316.677180400002,316.677180400002,316.677180400002,317.378276899981,space,0.694093400001293,None,317.380104499985,317.793886366653,318.107790699985,318.08871739998,318.088735500001,318.107790699985,318.107790699985,318.107790699985,320.825517499994,300,1,[2.7356526000075974],[2.7356578999897465],,p2,1,2024-11-14_13h35.22.855,intentional binding,2024.1.5,None,2024-11-14 13h35.33.887253 +0530
0.1,400,unexp,5,1,61,0,320.84127449998,,320.829024100007,320.84127449998,321.84129099999,321.84129099999,321.84129099999,323.008935599995,space,1.15212660000543,None,323.010672500008,323.124795166663,323.429675199994,323.418583199993,323.41860059998,323.429675199994,323.429675199994,323.429675199994,325.564130499988,200,1,[2.1443402000004426],[2.1443560000043362],322.84136369999,p2,1,2024-11-14_13h35.22.855,intentional binding,2024.1.5,None,2024-11-14 13h35.33.887253 +0530
0.1,1000,exp,5,2,62,6,325.579693899985,,325.567652199999,325.579693899985,326.579457699991,326.579457699991,326.579457699991,327.547244999994,space,0.956137000001036,None,327.549050100002,327.663224366672,327.969356099988,327.958607299981,327.958627099986,327.969356099988,327.969356099988,327.969356099988,329.486649400002,200,1,[1.5268439000064973],[1.526848700013943],,p2,1,2024-11-14_13h35.22.855,intentional binding,2024.1.5,None,2024-11-14 13h35.33.887253 +0530
0.4,1000,exp,5,3,63,4,329.50258879998,,329.49041139998,329.50258879998,330.502660900005,330.502660900005,330.502660900005,331.653547299997,space,1.14760679999017,None,331.655372199981,332.069276466649,332.380379599985,332.368685900001,332.368705800007,332.380379599985,332.380379599985,332.380379599985,333.798533900001,200,1,[1.42862530000275],[1.4286368000030052],331.502293099998,p2,1,2024-11-14_13h35.22.855,intentional binding,2024.1.5,None,2024-11-14 13h35.33.887253 +0530
0.7,1000,exp,5,4,64,11,333.813234100002,,333.8020846,333.813234100002,334.813489799999,334.813489799999,334.813489799999,335.231264300004,space,0.402141099999426,None,335.23299389999,335.946940666651,336.260850299994,336.248621100007,336.248640599981,336.260850299994,336.260850299994,336.260850299994,338.31294839998,600,1,[2.063230500003556],[2.0632369999948423],,p2,1,2024-11-14_13h35.22.855,intentional binding,2024.1.5,None,2024-11-14 13h35.33.887253 +0530
0.4,1000,exp,5,5,65,7,338.327711499995,,338.316413399996,338.327711499995,339.327363299992,339.327363299992,339.327363299992,340.011750200007,space,0.68065709999064,None,340.013465800002,340.427267166673,340.752502299991,340.728599299997,340.728618199995,340.752502299991,340.752502299991,340.752502299991,342.520194199984,300,1,[1.7904211999848485],[1.7904316999774892],,p2,1,2024-11-14_13h35.22.855,intentional binding,2024.1.5,None,2024-11-14 13h35.33.887253 +0530
0.7,1000,exp,5,6,66,5,342.535844900005,,342.523634199984,342.535844900005,343.5359092,343.5359092,343.5359092,343.836752699979,space,0.29142010002397,None,343.838554799993,344.552461466669,344.86025659999,344.848578899982,344.848601799982,344.86025659999,344.86025659999,344.86025659999,347.394090899994,600,1,[2.5443438999936916],[2.5443492000049446],,p2,1,2024-11-14_13h35.22.855,intentional binding,2024.1.5,None,2024-11-14 13h35.33.887253 +0530
0.1,1000,exp,5,7,67,3,347.410011200001,,347.397621499986,347.410011200001,348.409902299987,348.409902299987,348.409902299987,349.310989699996,space,0.898897100007162,None,349.31280309998,349.426442166649,349.751609500003,349.728646600008,349.728666499985,349.751609500003,349.751609500003,349.751609500003,351.020082300005,100,1,[1.2902959999919403],[1.2903015000047162],,p2,1,2024-11-14_13h35.22.855,intentional binding,2024.1.5,None,2024-11-14 13h35.33.887253 +0530
0.4,400,unexp,5,8,68,1,351.035201199993,,351.023587899981,351.035201199993,352.035182099993,352.035182099993,352.035182099993,352.469201600004,space,0.419356600003084,None,352.470922599983,352.885041566657,353.210128499981,353.18848859999,353.18850779999,353.210128499981,353.210128499981,353.210128499981,354.960969999986,400,1,[1.771319899999071],[1.7713306000223383],,p2,1,2024-11-14_13h35.22.855,intentional binding,2024.1.5,None,2024-11-14 13h35.33.887253 +0530
0.7,1000,exp,5,9,69,8,354.976689200004,,354.964447200007,354.976689200004,355.976770399982,355.976770399982,355.976770399982,356.42744639999,space,0.444508799992036,None,356.429378300003,357.143386966669,357.449183799996,357.438563300006,357.438580999995,357.449183799996,357.449183799996,357.449183799996,358.983963999985,700,1,[1.5440673000121024],[1.5440804999961983],,p2,1,2024-11-14_13h35.22.855,intentional binding,2024.1.5,None,2024-11-14 13h35.33.887253 +0530
0.1,1000,exp,5,10,70,9,358.999120199995,,358.987655899982,358.999120199995,359.9992662,359.9992662,359.9992662,360.750173499982,space,0.742218500003219,None,360.751935099979,360.865819966657,361.190934299986,361.168537699996,361.168557199999,361.190934299986,361.190934299986,361.190934299986,362.591895199992,300,1,[1.4221460999979172],[1.422156399989035],,p2,1,2024-11-14_13h35.22.855,intentional binding,2024.1.5,None,2024-11-14 13h35.33.887253 +0530
0.7,400,unexp,5,11,71,2,362.607542999991,,362.595398100006,362.607542999991,363.607609500003,363.607609500003,363.607609500003,364.125065,space,0.506073500000639,None,364.126959199988,364.841030166663,365.149056800001,365.138406099984,365.13842589999,365.149056800001,365.149056800001,365.149056800001,368.000187099999,600,1,[2.8605713000288233],[2.8605846000136808],,p2,1,2024-11-14_13h35.22.855,intentional binding,2024.1.5,None,2024-11-14 13h35.33.887253 +0530
0.7,1000,exp,6,0,72,11,368.015769899997,,368.003711900004,368.015769899997,369.015634399984,369.015634399984,369.015634399984,369.266579099989,space,0.246934800001327,None,369.268326099991,369.982395666655,370.289379399997,370.278370699991,370.278389599989,370.289379399997,370.289379399997,370.289379399997,372.07389889998,800,1,[1.7943107999744825],[1.7943243999907281],,p2,1,2024-11-14_13h35.22.855,intentional binding,2024.1.5,None,2024-11-14 13h35.33.887253 +0530
0.1,1000,exp,6,1,73,3,372.089244600007,,372.077413299994,372.089244600007,373.089175300003,373.089175300003,373.089175300003,375.407104399987,space,2.31591450000997,None,375.408814900002,375.522867166674,375.828780399985,375.818443299999,375.818461499992,375.828780399985,375.828780399985,375.828780399985,377.629886599985,100,1,[1.8104046999942511],[1.8104094000009354],374.089301,p2,1,2024-11-14_13h35.22.855,intentional binding,2024.1.5,None,2024-11-14 13h35.33.887253 +0530
0.7,400,unexp,6,2,74,2,377.645434000005,,377.633318499982,377.645434000005,378.645437700005,378.645437700005,378.645437700005,379.096493899997,space,0.443444000004092,None,379.098251999996,379.812116866673,380.119677999988,380.108450500004,380.108468699997,380.119677999988,380.119677999988,380.119677999988,381.137099799991,999,1,[1.0274828000110574],[1.027493500005221],,p2,1,2024-11-14_13h35.22.855,intentional binding,2024.1.5,None,2024-11-14 13h35.33.887253 +0530
0.7,1000,exp,6,3,75,8,381.15278449998,,381.140627199988,381.15278449998,382.152750499983,382.152750499983,382.152750499983,382.820249799988,space,0.652457299991511,None,382.821969499986,383.536002966667,383.861165199982,383.83853529999,383.838554499991,383.861165199982,383.861165199982,383.861165199982,385.328594699997,600,1,[1.4888534999918193],[1.48886399998446],,p2,1,2024-11-14_13h35.22.855,intentional binding,2024.1.5,None,2024-11-14 13h35.33.887253 +0530
0.4,400,unexp,6,4,76,1,385.344565499981,,385.332172900002,385.344565499981,386.344457900006,386.344457900006,386.344457900006,386.478609799989,space,0.124383999995189,None,386.480392900005,386.894437066662,387.219271299982,387.198421299981,387.198443600006,387.219271299982,387.219271299982,387.219271299982,389.936920000007,400,1,[2.7372743999876548],[2.7372844999772497],,p2,1,2024-11-14_13h35.22.855,intentional binding,2024.1.5,None,2024-11-14 13h35.33.887253 +0530
0.7,1000,exp,6,5,77,5,389.952757499996,,389.940465899999,389.952757499996,390.952747500007,390.952747500007,390.952747500007,391.237061199994,space,0.276688600017223,None,391.2387743,391.953089566672,392.2596701,392.248552999983,392.248573099991,392.2596701,392.2596701,392.2596701,393.476971199998,800,1,[1.2273286000126973],[1.2273344999994151],,p2,1,2024-11-14_13h35.22.855,intentional binding,2024.1.5,None,2024-11-14 13h35.33.887253 +0530
0.1,1000,exp,6,6,78,9,393.492913499998,,393.480453099997,393.492913499998,394.492925900005,394.492925900005,394.492925900005,395.177178599988,space,0.677480899990769,None,395.17891029999,395.292831566654,395.599478899996,395.588440299995,395.588459999999,395.599478899996,395.599478899996,395.599478899996,397.317173899995,100,1,[1.7275058000232093],[1.7275179999996908],,p2,1,2024-11-14_13h35.22.855,intentional binding,2024.1.5,None,2024-11-14 13h35.33.887253 +0530
0.4,1000,exp,6,7,79,4,397.332591399987,,397.320676899981,397.332591399987,398.33271279998,398.33271279998,398.33271279998,398.617249200004,space,0.273583700007293,None,398.618987399997,399.032578966671,399.339189399994,399.328312900005,399.328331800003,399.339189399994,399.339189399994,399.339189399994,400.539928499988,300,1,[1.2105831000080798],[1.2105882000178099],,p2,1,2024-11-14_13h35.22.855,intentional binding,2024.1.5,None,2024-11-14 13h35.33.887253 +0530
0.4,1000,exp,6,8,80,10,400.555906399997,,400.543505699985,400.555906399997,401.555687799992,401.555687799992,401.555687799992,401.973427399993,space,0.402450399997178,None,401.975344499981,402.389199966656,402.698893299996,402.688452200004,402.688471500005,402.698893299996,402.698893299996,402.698893299996,404.00217729999,200,1,[1.312688000005437],[1.3126936000189744],,p2,1,2024-11-14_13h35.22.855,intentional binding,2024.1.5,None,2024-11-14 13h35.33.887253 +0530
0.4,1000,exp,6,9,81,7,404.017033299984,,404.00568989999,404.017033299984,405.017081600003,405.017081600003,405.017081600003,405.451115999982,space,0.426091300003463,None,405.452940399991,405.866657166658,406.180607099988,406.168340200005,406.168359200005,406.180607099988,406.180607099988,406.180607099988,407.482043399999,200,1,[1.312541399995098],[1.312546500004828],,p2,1,2024-11-14_13h35.22.855,intentional binding,2024.1.5,None,2024-11-14 13h35.33.887253 +0530
0.1,400,unexp,6,10,82,0,407.497548599989,,407.485549499979,407.497548599989,408.497564499994,408.497564499994,408.497564499994,410.215603499993,space,1.71648079997976,None,410.217384599993,410.331001666669,410.638721199997,410.628348500002,410.62836979999,410.638721199997,410.638721199997,410.638721199997,414.906231300003,200,1,[4.27682949998416],[4.276834299991606],409.497473199997,p2,1,2024-11-14_13h35.22.855,intentional binding,2024.1.5,None,2024-11-14 13h35.33.887253 +0530
0.1,1000,exp,6,11,83,6,414.922235899983,,414.909745399986,414.922235899983,415.922372800007,415.922372800007,415.922372800007,417.9064908,space,1.97366909999982,None,417.908213999996,418.022329466654,418.329401900002,418.318400899996,418.318421600008,418.329401900002,418.329401900002,418.329401900002,420.847401899984,100,1,[2.527857600012794],[2.527863099996466],416.922374999995,p2,1,2024-11-14_13h35.22.855,intentional binding,2024.1.5,None,2024-11-14 13h35.33.887253 +0530
0.7,400,unexp,7,0,84,2,420.86260979998,,420.851644899987,420.86260979998,421.862637599988,421.862637599988,421.862637599988,423.329893599992,space,1.46436810001615,None,423.331620699988,424.045886366661,424.370947399992,424.348347499996,424.348366899998,424.370947399992,424.370947399992,424.370947399992,426.571611199994,500,1,[2.2222000999900047],[2.222204799996689],422.862529599981,p2,1,2024-11-14_13h35.22.855,intentional binding,2024.1.5,None,2024-11-14 13h35.33.887253 +0530
0.1,1000,exp,7,1,85,3,426.587788999983,,426.575092999992,426.587788999983,427.587645799998,427.587645799998,427.587645799998,429.588863699988,space,1.99123770001461,None,429.59063609998,429.704278466674,430.009035800002,429.998339999991,429.998359599995,430.009035800002,430.009035800002,430.009035800002,433.759929099993,300,1,[3.760407599998871],[3.7604180999915116],428.587455600005,p2,1,2024-11-14_13h35.22.855,intentional binding,2024.1.5,None,2024-11-14 13h35.33.887253 +0530
0.4,1000,exp,7,2,86,10,433.775657699996,,433.763419299998,433.775657699996,434.775761700003,434.775761700003,434.775761700003,435.360113000002,space,0.572564900008729,None,435.361828099994,435.775611466674,436.100785799994,436.078352599987,436.07837209999,436.100785799994,436.100785799994,436.100785799994,438.318488399993,100,1,[2.2389781000092626],[2.238989400007995],,p2,1,2024-11-14_13h35.22.855,intentional binding,2024.1.5,None,2024-11-14 13h35.33.887253 +0530
0.1,1000,exp,7,3,87,9,438.333864199987,,438.322026999987,438.333864199987,439.334167599998,439.334167599998,439.334167599998,441.001175199985,space,1.66479010001058,None,441.002879000007,441.117390266653,441.442511200003,441.41833299998,441.418351200002,441.442511200003,441.442511200003,441.442511200003,443.176927399996,300,1,[1.757357199996477],[1.7573674999875948],440.333732300001,p2,1,2024-11-14_13h35.22.855,intentional binding,2024.1.5,None,2024-11-14 13h35.33.887253 +0530
0.4,1000,exp,7,4,88,4,443.192191699985,,443.180714099988,443.192191699985,444.192363799986,444.192363799986,444.192363799986,444.693276999984,space,0.484734099998605,None,444.695078499994,445.109041566673,445.419201599987,445.408423799992,445.408442899992,445.419201599987,445.419201599987,445.419201599987,446.405567499984,100,1,[0.9958798000006936],[0.9958936999901198],,p2,1,2024-11-14_13h35.22.855,intentional binding,2024.1.5,None,2024-11-14 13h35.33.887253 +0530
0.7,1000,exp,7,5,89,11,446.420228600007,,446.409102200007,446.420228600007,447.420001199993,447.420001199993,447.420001199993,447.83754909999,space,0.40416110001388,None,447.839333299984,448.553170466654,448.867410200008,448.84827659998,448.848295400007,448.867410200008,448.867410200008,448.867410200008,450.751540700003,200,1,[1.9021609000046737],[1.9021658999845386],,p2,1,2024-11-14_13h35.22.855,intentional binding,2024.1.5,None,2024-11-14 13h35.33.887253 +0530
0.1,400,unexp,7,6,90,0,450.767377199983,,450.755126300006,450.767377199983,451.767217199988,451.767217199988,451.767217199988,452.101731200004,space,0.328550200007157,None,452.103488699999,452.217176266659,452.542490399996,452.518643999996,452.518662599992,452.542490399996,452.542490399996,452.542490399996,454.11004,300,1,[1.5903010000183713],[1.5903060999989975],,p2,1,2024-11-14_13h35.22.855,intentional binding,2024.1.5,None,2024-11-14 13h35.33.887253 +0530
0.7,1000,exp,7,7,91,8,454.12552869998,,454.113605099992,454.12552869998,455.125814800005,455.125814800005,455.125814800005,455.510574099986,space,0.38348760001827,None,455.512473499985,456.225696366663,456.550792800001,456.528245900001,456.528264399996,456.550792800001,456.550792800001,456.550792800001,458.185986600001,300,1,[1.6566509999975096],[1.6566568999842275],,p2,1,2024-11-14_13h35.22.855,intentional binding,2024.1.5,None,2024-11-14 13h35.33.887253 +0530
0.4,1000,exp,7,8,92,7,458.200533399999,,458.1895066,458.200533399999,459.200591800007,459.200591800007,459.200591800007,459.618133899989,space,0.412211299990304,None,459.619902300008,460.033994966656,460.33899769999,460.328126899985,460.328146499989,460.33899769999,460.33899769999,460.33899769999,461.723301799997,100,1,[1.3939899999822956],[1.3940002999734133],,p2,1,2024-11-14_13h35.22.855,intentional binding,2024.1.5,None,2024-11-14 13h35.33.887253 +0530
0.1,1000,exp,7,9,93,6,461.738998799992,,461.72680449998,461.738998799992,462.738999499998,462.738999499998,462.738999499998,463.223486300005,space,0.474624599999515,None,463.225346099993,463.339145666662,463.648666900001,463.63826409998,463.638284899993,463.648666900001,463.648666900001,463.648666900001,465.169239399984,100,1,[1.5297417999827303],[1.5297475999977905],,p2,1,2024-11-14_13h35.22.855,intentional binding,2024.1.5,None,2024-11-14 13h35.33.887253 +0530
0.4,400,unexp,7,10,94,1,465.183692899998,,465.17286739999,465.183692899998,466.183260899998,466.183260899998,466.183260899998,466.21812439998,space,0.0315219000040088,None,466.219905200007,466.633456566666,466.9473191,466.928190100007,466.928210099984,466.9473191,466.9473191,466.9473191,468.449441899982,300,1,[1.5201745000085793],[1.5201808999991044],,p2,1,2024-11-14_13h35.22.855,intentional binding,2024.1.5,None,2024-11-14 13h35.33.887253 +0530
0.7,1000,exp,7,11,95,5,468.463904799981,,468.452947999991,468.463904799981,469.464037900005,469.464037900005,469.464037900005,470.56514229998,space,1.09966229999554,None,470.566845099995,471.28065496666,471.589124399994,471.578138699988,471.578158799995,471.589124399994,471.589124399994,471.589124399994,473.190201599995,500,1,[1.6107899000053294],[1.6108032000192907],470.464000000007,p2,1,2024-11-14_13h35.22.855,intentional binding,2024.1.5,None,2024-11-14 13h35.33.887253 +0530
0.4,1000,exp,8,0,96,4,473.205641299981,,473.193666999985,473.205641299981,474.205649899988,474.205649899988,474.205649899988,474.856508700002,space,0.633882100024493,None,474.858289099997,475.272418766665,475.579351499997,475.568220999994,475.568239399989,475.579351499997,475.579351499997,475.579351499997,477.296672800003,200,1,[1.7274272000067867],[1.7274320000142325],,p2,1,2024-11-14_13h35.22.855,intentional binding,2024.1.5,None,2024-11-14 13h35.33.887253 +0530
0.7,1000,exp,8,1,97,11,477.312603800005,,477.300142299995,477.312603800005,478.312565700006,478.312565700006,478.312565700006,479.196830200002,space,0.878505800006678,None,479.198765799985,479.912399166646,480.21955389998,480.208145399985,480.208164699987,480.21955389998,480.21955389998,480.21955389998,482.653239499981,400,1,[2.444034799991641],[2.4440396999998484],,p2,1,2024-11-14_13h35.22.855,intentional binding,2024.1.5,None,2024-11-14 13h35.33.887253 +0530
0.1,1000,exp,8,2,98,9,482.669075199985,,482.656720800005,482.669075199985,483.66904779998,483.66904779998,483.66904779998,485.820188399986,space,2.13912139998865,None,485.821907000005,485.935742766658,486.260962800006,486.238226599991,486.2382469,486.260962800006,486.260962800006,486.260962800006,493.71227009999,200,1,[7.472612300014589],[7.472625700000208],484.669283099996,p2,1,2024-11-14_13h35.22.855,intentional binding,2024.1.5,None,2024-11-14 13h35.33.887253 +0530
0.7,1000,exp,8,3,99,5,493.727510199999,,493.715832799993,493.727510199999,494.72753199999,494.72753199999,494.72753199999,496.128674000007,space,1.39972529999795,None,496.130445199989,496.844342466651,497.169190999994,497.148167899984,497.148186799983,497.169190999994,497.169190999994,497.169190999994,498.636855499994,300,1,[1.4874631999991834],[1.4874732999887783],495.727634599985,p2,1,2024-11-14_13h35.22.855,intentional binding,2024.1.5,None,2024-11-14 13h35.33.887253 +0530
0.1,400,unexp,8,4,100,0,498.652511199995,,498.640324999986,498.652511199995,499.652458500001,499.652458500001,499.652458500001,500.486757100007,space,0.832126399996923,None,500.488571800001,500.602598666654,500.908900999988,500.898124600004,500.898143700004,500.908900999988,500.908900999988,500.908900999988,502.19259749999,400,1,[1.2934228999947663],[1.293427700002212],,p2,1,2024-11-14_13h35.22.855,intentional binding,2024.1.5,None,2024-11-14 13h35.33.887253 +0530
0.1,1000,exp,8,5,101,6,502.208454699983,,502.196063699987,502.208454699983,503.208915099996,503.208915099996,503.208915099996,503.92676089998,space,0.711741200007964,None,503.928554099984,504.042028966655,504.348882799997,504.33810589998,504.338123299996,504.348882799997,504.348882799997,504.348882799997,506.116672100005,500,1,[1.7774694999970961],[1.777474299975438],,p2,1,2024-11-14_13h35.22.855,intentional binding,2024.1.5,None,2024-11-14 13h35.33.887253 +0530
0.7,400,unexp,8,6,102,2,506.132277099998,,506.120198599994,506.132277099998,507.1321054,507.1321054,507.1321054,507.366375399986,space,0.231778699991992,None,507.368084199989,508.082171466671,508.389609399979,508.378164199996,508.37818249999,508.389609399979,508.389609399979,508.389609399979,512.623499699985,500,1,[4.243985100009013],[4.24399510002695],,p2,1,2024-11-14_13h35.22.855,intentional binding,2024.1.5,None,2024-11-14 13h35.33.887253 +0530
0.4,400,unexp,8,7,103,1,512.63926299999,,512.626968299999,512.63926299999,513.639391699981,513.639391699981,513.639391699981,515.990328999993,space,2.34240429999772,None,515.99225109999,516.406172666673,516.730861599994,516.708052500006,516.708071900008,516.730861599994,516.730861599994,516.730861599994,517.998549399985,100,1,[1.2893521999940276],[1.2893572000029963],514.639148599992,p2,1,2024-11-14_13h35.22.855,intentional binding,2024.1.5,None,2024-11-14 13h35.33.887253 +0530
0.4,1000,exp,8,8,104,7,518.01416609998,,518.002049400006,518.01416609998,519.0143446,519.0143446,519.0143446,519.448556599993,space,0.418148400000064,None,519.450311399996,519.864350566674,520.189410999999,520.168112999992,520.168131899991,520.189410999999,520.189410999999,520.189410999999,521.706824299996,200,1,[1.5375690000073519],[1.5375790999969468],,p2,1,2024-11-14_13h35.22.855,intentional binding,2024.1.5,None,2024-11-14 13h35.33.887253 +0530
0.1,1000,exp,8,9,105,3,521.722648800002,,521.710273300007,521.722648800002,522.7226792,522.7226792,522.7226792,523.507056700008,space,0.767063300008886,None,523.50877819999,523.622844766655,523.930686499982,523.918067999999,523.918088599981,523.930686499982,523.930686499982,523.930686499982,526.397971099999,200,1,[2.478713799995603],[2.4787185000022873],,p2,1,2024-11-14_13h35.22.855,intentional binding,2024.1.5,None,2024-11-14 13h35.33.887253 +0530
0.7,1000,exp,8,10,106,8,526.413907999988,,526.401474399987,526.413907999988,527.4139172,527.4139172,527.4139172,528.08178399998,space,0.659272899996722,None,528.083516599989,528.796930766668,529.122107699979,529.098052699992,529.098070599983,529.122107699979,529.122107699979,529.122107699979,531.556219799997,200,1,[2.4571426000038628],[2.4571473999822047],,p2,1,2024-11-14_13h35.22.855,intentional binding,2024.1.5,None,2024-11-14 13h35.33.887253 +0530
0.4,1000,exp,8,11,107,10,531.571972000005,,531.559816099994,531.571972000005,532.572096299991,532.572096299991,532.572096299991,535.27298899999,space,2.68381930000032,None,535.274730200006,535.688925666651,535.998466599995,535.988086700003,535.988106699981,535.998466599995,535.998466599995,535.998466599995,537.934891099983,400,1,[1.9455736999807414],[1.945585499983281],533.572278799984,p2,1,2024-11-14_13h35.22.855,intentional binding,2024.1.5,None,2024-11-14 13h35.33.887253 +0530
0.7,1000,exp,9,0,108,8,537.950196999998,,537.938387100003,537.950196999998,538.949642199994,538.949642199994,538.949642199994,539.367620200006,space,0.407478200009791,None,539.3693623,540.083303366646,540.397429899982,540.378067199985,540.378087299992,540.397429899982,540.397429899982,540.397429899982,541.848487799987,300,1,[1.469113599974662],[1.4691240999964066],,p2,1,2024-11-14_13h35.22.855,intentional binding,2024.1.5,None,2024-11-14 13h35.33.887253 +0530
0.1,1000,exp,9,1,109,6,541.863601799996,,541.852162900002,541.863601799996,542.863663700002,542.863663700002,542.863663700002,544.29835539998,space,1.42933119999361,None,544.300124400004,544.413796866666,544.718581099995,544.708033600007,544.708054399991,544.718581099995,544.718581099995,544.718581099995,546.286285699985,200,1,[1.5772072000254411],[1.5772121000045445],543.863904500002,p2,1,2024-11-14_13h35.22.855,intentional binding,2024.1.5,None,2024-11-14 13h35.33.887253 +0530
0.7,1000,exp,9,2,110,11,546.301891399984,,546.289817399986,546.301891399984,547.301906699984,547.301906699984,547.301906699984,547.902830000006,space,0.591719199990621,None,547.904580300004,548.618792966652,548.9284797,548.917995600001,548.918014900002,548.9284797,548.9284797,548.9284797,550.01504269999,500,1,[1.0959655000187922],[1.0959730000176933],,p2,1,2024-11-14_13h35.22.855,intentional binding,2024.1.5,None,2024-11-14 13h35.33.887253 +0530
0.7,400,unexp,9,3,111,2,550.029610800004,,550.018584200006,550.029610800004,551.029542500008,551.029542500008,551.029542500008,552.230448399991,space,1.19671859999653,None,552.2321964,552.946044866669,553.260253999993,553.247986100003,553.248004299996,553.260253999993,553.260253999993,553.260253999993,554.428049099981,900,1,[1.178941299993312],[1.178946600004565],552.029428699985,p2,1,2024-11-14_13h35.22.855,intentional binding,2024.1.5,None,2024-11-14 13h35.33.887253 +0530
0.1,1000,exp,9,4,112,9,554.443610399991,,554.431565100007,554.443610399991,555.443588299997,555.443588299997,555.443588299997,556.578362500004,space,1.12484179998864,None,556.580114199984,556.693563766665,556.998789400008,556.987947299989,556.987965599983,556.998789400008,556.998789400008,556.998789400008,558.532938699995,300,1,[1.543935199995758],[1.543940300005488],556.443825399998,p2,1,2024-11-14_13h35.22.855,intentional binding,2024.1.5,None,2024-11-14 13h35.33.887253 +0530
0.4,400,unexp,9,5,113,1,558.548380699998,,558.536753599998,558.548380699998,559.548502299993,559.548502299993,559.548502299993,559.965771499992,space,0.413141500001075,None,559.96756759999,560.381479866661,560.689483900002,560.677932399994,560.677970299992,560.689483900002,560.689483900002,560.689483900002,561.973362299992,500,1,[1.2942848000093363],[1.2942923000082374],,p2,1,2024-11-14_13h35.22.855,intentional binding,2024.1.5,None,2024-11-14 13h35.33.887253 +0530
0.4,1000,exp,9,6,114,4,561.989346399991,,561.976856599998,561.989346399991,562.989291200007,562.989291200007,562.989291200007,563.540189599997,space,0.545996900007594,None,563.541908199986,563.955971866646,564.281132500008,564.258087199996,564.258107899979,564.281132500008,564.281132500008,564.281132500008,567.816148999991,400,1,[3.5569102999870665],[3.5569168999791145],,p2,1,2024-11-14_13h35.22.855,intentional binding,2024.1.5,None,2024-11-14 13h35.33.887253 +0530
0.4,1000,exp,9,7,115,7,567.830945900001,,567.819614599983,567.830945900001,568.830743099999,568.830743099999,568.830743099999,569.1655264,space,0.325105500000063,None,569.167359399988,569.581105166672,569.888322999992,569.877845799987,569.877863100002,569.888322999992,569.888322999992,569.888322999992,571.206146699988,400,1,[1.3270731999946292],[1.3270833999849856],,p2,1,2024-11-14_13h35.22.855,intentional binding,2024.1.5,None,2024-11-14 13h35.33.887253 +0530
0.1,400,unexp,9,8,116,0,571.221803399996,,571.209725199995,571.221803399996,572.221859799989,572.221859799989,572.221859799989,572.939327,space,0.700230699992972,None,572.941059300007,573.05503776667,573.380376799993,573.358087800007,573.358106500004,573.380376799993,573.380376799993,573.380376799993,574.897852900001,500,1,[1.5385524999874178],[1.538562700006878],,p2,1,2024-11-14_13h35.22.855,intentional binding,2024.1.5,None,2024-11-14 13h35.33.887253 +0530
0.1,1000,exp,9,9,117,3,574.913169000007,,574.901396100002,574.913169000007,575.913406100008,575.913406100008,575.913406100008,576.264177100005,space,0.334590000013122,None,576.265974099981,576.380288066667,576.688820299983,576.677965999988,576.678011199983,576.688820299983,576.688820299983,576.688820299983,578.425938100001,300,1,[1.7463512999820523],[1.7463568999955896],,p2,1,2024-11-14_13h35.22.855,intentional binding,2024.1.5,None,2024-11-14 13h35.33.887253 +0530
0.4,1000,exp,9,10,118,10,578.440988499991,,578.429475499986,578.440988499991,579.440863399999,579.440863399999,579.440863399999,579.708783799986,space,0.253367900004378,None,579.710574500001,580.124263066657,580.438829499995,580.428021200001,580.428041799984,580.438829499995,580.438829499995,580.438829499995,582.456171900005,200,1,[2.0271158999821637],[2.027120599988848],,p2,1,2024-11-14_13h35.22.855,intentional binding,2024.1.5,None,2024-11-14 13h35.33.887253 +0530
0.7,1000,exp,9,11,119,5,582.472319299995,,582.459646999982,582.472319299995,583.4720561,583.4720561,583.4720561,584.289869700006,space,0.813066300004721,None,584.291600600001,585.005514866647,585.330533400003,585.307928800001,585.30794649999,585.330533400003,585.330533400003,585.330533400003,589.031648000004,200,1,[3.722416799981147],[3.7224300999951083],,p2,1,2024-11-14_13h35.22.855,intentional binding,2024.1.5,None,2024-11-14 13h35.33.887253 +0530
0.4,1000,exp,10,0,120,4,589.047219800006,,589.035166099988,589.047219800006,590.047340199992,590.047340199992,590.047340199992,590.214772799984,space,0.152439500001492,None,590.216478199989,590.630590366669,590.93861469999,590.9278834,590.927903300006,590.93861469999,590.93861469999,590.93861469999,593.006042599998,300,1,[2.0769986000086647],[2.077009000000544],,p2,1,2024-11-14_13h35.22.855,intentional binding,2024.1.5,None,2024-11-14 13h35.33.887253 +0530
0.7,400,unexp,10,1,121,2,593.0219965,,593.009577399993,593.0219965,594.021957799996,594.021957799996,594.021957799996,594.656365200004,space,0.618407100002514,None,594.658114799997,595.372011866657,595.678128300002,595.667813799984,595.667833299987,595.678128300002,595.678128300002,595.678128300002,597.678995599999,500,1,[2.010026200005086],[2.010037200001534],,p2,1,2024-11-14_13h35.22.855,intentional binding,2024.1.5,None,2024-11-14 13h35.33.887253 +0530
0.7,1000,exp,10,2,122,8,597.695000899985,,597.682528400008,597.695000899985,598.694857199996,598.694857199996,598.694857199996,598.929274800001,space,0.219801500003086,None,598.930987900007,599.64496176667,599.9695565,599.947897599981,599.947916100005,599.9695565,599.9695565,599.9695565,605.58755549998,600,1,[5.638443100004224],[5.638453500025207],,p2,1,2024-11-14_13h35.22.855,intentional binding,2024.1.5,None,2024-11-14 13h35.33.887253 +0530
0.7,1000,exp,10,3,123,5,605.603162999993,,605.591265399999,605.603162999993,606.60292569999,606.60292569999,606.60292569999,606.854332699993,space,0.23856229998637,None,606.856194599997,607.569970066663,607.878620899981,607.867778799991,607.867799,607.878620899981,607.878620899981,607.878620899981,609.995947899995,700,1,[2.1269525999960024],[2.1269629999878816],,p2,1,2024-11-14_13h35.22.855,intentional binding,2024.1.5,None,2024-11-14 13h35.33.887253 +0530
0.1,1000,exp,10,4,124,3,610.011678499985,,609.999425599992,610.011678499985,611.011604400002,611.011604400002,611.011604400002,612.612327499985,space,1.59903660000418,None,612.614128599991,612.728187066652,613.038660599996,613.027819299983,613.027838299982,613.038660599996,613.038660599996,613.038660599996,615.740690999985,200,1,[2.7116609000077005],[2.711672500008717],612.0115124,p2,1,2024-11-14_13h35.22.855,intentional binding,2024.1.5,None,2024-11-14 13h35.33.887253 +0530
0.4,1000,exp,10,5,125,10,615.755753899983,,615.744177099987,615.755753899983,616.755824299995,616.755824299995,616.755824299995,617.073356599984,space,0.30639230000088,None,617.075146699994,617.488896266648,617.803310999996,617.787751600001,617.787771000003,617.803310999996,617.803310999996,617.803310999996,620.304030500003,400,1,[2.515234299993608],[2.5152395000040997],,p2,1,2024-11-14_13h35.22.855,intentional binding,2024.1.5,None,2024-11-14 13h35.33.887253 +0530
0.7,1000,exp,10,6,126,11,620.319655600004,,620.307488599996,620.319655600004,621.319867499988,621.319867499988,621.319867499988,621.954360600008,space,0.623900400009006,None,621.956083199999,622.669870466667,622.978361099988,622.96771669999,622.967735399987,622.978361099988,622.978361099988,622.978361099988,624.77932099998,500,1,[1.8103673000005074],[1.8103775000199676],,p2,1,2024-11-14_13h35.22.855,intentional binding,2024.1.5,None,2024-11-14 13h35.33.887253 +0530
0.1,400,unexp,10,7,127,0,624.794797599985,,624.783071399987,624.794797599985,625.794526399986,625.794526399986,625.794526399986,625.829072499997,space,0.0301654000068083,None,625.830824200006,625.945033266649,626.269866099989,626.248039600003,626.248083599989,626.269866099989,626.269866099989,626.269866099989,628.3705357,500,1,[2.1211774999974295],[2.1211824000056367],,p2,1,2024-11-14_13h35.22.855,intentional binding,2024.1.5,None,2024-11-14 13h35.33.887253 +0530
0.4,400,unexp,10,8,128,1,628.386521000008,,628.374020499992,628.386521000008,629.386484999995,629.386484999995,629.386484999995,630.02032739998,space,0.617221499996958,None,630.022276300006,630.436431966668,630.761561599997,630.737852199993,630.73787089999,630.761561599997,630.761561599997,630.761561599997,632.962377799995,400,1,[2.223306700005196],[2.223316999996314],,p2,1,2024-11-14_13h35.22.855,intentional binding,2024.1.5,None,2024-11-14 13h35.33.887253 +0530
0.1,1000,exp,10,9,129,9,632.978277199989,,632.966010899982,632.978277199989,633.978163799999,633.978163799999,633.978163799999,634.062022400001,space,0.0811997999844607,None,634.063739400008,634.178148466661,634.4886367,634.4777741,634.477794000006,634.4886367,634.4886367,634.4886367,638.790825300006,100,1,[4.311880799999926],[4.311892400000943],,p2,1,2024-11-14_13h35.22.855,intentional binding,2024.1.5,None,2024-11-14 13h35.33.887253 +0530
0.4,1000,exp,10,10,130,7,638.805847299984,,638.794331299985,638.805847299984,639.805741999997,639.805741999997,639.805741999997,642.039748399984,space,2.21748729998944,None,642.04153789999,642.45561816666,642.769632999989,642.757951999985,642.757986199984,642.769632999989,642.769632999989,642.769632999989,644.854978099989,200,1,[2.095508400001563],[2.0955143999890424],640.805632000003,p2,1,2024-11-14_13h35.22.855,intentional binding,2024.1.5,None,2024-11-14 13h35.33.887253 +0530
0.1,1000,exp,10,11,131,6,644.86981969999,,644.858526299999,644.86981969999,645.869759299996,645.869759299996,645.869759299996,646.004399500001,space,0.123073900002055,None,646.006177400006,646.119840966658,646.429588200001,646.417933499994,646.417971699993,646.429588200001,646.429588200001,646.429588200001,647.749419400003,200,1,[1.330084799992619],[1.3300911000114866],,p2,1,2024-11-14_13h35.22.855,intentional binding,2024.1.5,None,2024-11-14 13h35.33.887253 +0530
0.1,400,unexp,11,0,132,0,647.764082799986,,647.753029499989,647.764082799986,648.764483899984,648.764483899984,648.764483899984,651.09890099999,space,2.32022250001319,None,651.100677299983,651.213738066672,651.528111399995,651.514153700002,651.514173699979,651.528111399995,651.528111399995,651.528111399995,654.279130899988,400,1,[2.7638234000187367],[2.76382829999784],649.763926999993,p2,1,2024-11-14_13h35.22.855,intentional binding,2024.1.5,None,2024-11-14 13h35.33.887253 +0530
0.4,1000,exp,11,1,133,4,654.294646099996,,654.282603200001,654.294646099996,655.29466699998,655.29466699998,655.29466699998,656.478979999985,space,1.17183659999864,None,656.480797299999,656.894776366655,657.219989999983,657.197673899995,657.197692999995,657.219989999983,657.219989999983,657.219989999983,659.704163999995,400,1,[2.505365499993786],[2.50537179998355],656.294868099998,p2,1,2024-11-14_13h35.22.855,intentional binding,2024.1.5,None,2024-11-14 13h35.33.887253 +0530
0.7,1000,exp,11,2,134,8,659.719718499982,,659.707692099997,659.719718499982,660.719557999983,660.719557999983,660.719557999983,662.237097100006,space,1.50335029998678,None,662.238884999999,662.953002666651,663.258628499985,663.247700599983,663.247718900006,663.258628499985,663.258628499985,663.258628499985,665.259305499989,200,1,[2.0105056000174955],[2.010510499996599],661.719702700008,p2,1,2024-11-14_13h35.22.855,intentional binding,2024.1.5,None,2024-11-14 13h35.33.887253 +0530
0.7,400,unexp,11,3,135,2,665.275165200001,,665.262760199985,665.275165200001,666.275405399996,666.275405399996,666.275405399996,666.509399100003,space,0.223659199982649,None,666.511150599981,667.225244366655,667.550474899996,667.527651199984,667.527669899981,667.550474899996,667.550474899996,667.550474899996,668.717876899988,900,1,[1.1890892999945208],[1.189099500013981],,p2,1,2024-11-14_13h35.22.855,intentional binding,2024.1.5,None,2024-11-14 13h35.33.887253 +0530
0.4,400,unexp,11,4,136,1,668.733655899996,,668.721392399981,668.733655899996,669.733602199995,669.733602199995,669.733602199995,670.034862500004,space,0.299794899998233,None,670.036613599979,670.450250466649,670.758096100006,670.747589200008,670.747606799996,670.758096100006,670.758096100006,670.758096100006,671.959197499993,900,1,[1.2104310000140686],[1.2104413000051863],,p2,1,2024-11-14_13h35.22.855,intentional binding,2024.1.5,None,2024-11-14 13h35.33.887253 +0530
0.4,1000,exp,11,5,137,7,671.974752299982,,671.962686799991,671.974752299982,672.974890299985,672.974890299985,672.974890299985,673.842170799995,space,0.850992799998494,None,673.843902599998,674.258295766664,674.568322899984,674.557583699992,674.557603599998,674.568322899984,674.568322899984,674.568322899984,678.53713479999,500,1,[3.9784115999937057],[3.978418299986515],,p2,1,2024-11-14_13h35.22.855,intentional binding,2024.1.5,None,2024-11-14 13h35.33.887253 +0530
0.1,1000,exp,11,6,138,9,678.552301299991,,678.540622400003,678.552301299991,679.552320799994,679.552320799994,679.552320799994,680.02006749998,space,0.463749900023686,None,680.021890599979,680.135891666669,680.44954479998,680.43768469998,680.437704599986,680.44954479998,680.44954479998,680.44954479998,681.967371000006,300,1,[1.528516300022602],[1.5285265000129584],,p2,1,2024-11-14_13h35.22.855,intentional binding,2024.1.5,None,2024-11-14 13h35.33.887253 +0530
0.7,1000,exp,11,7,139,5,681.982951999991,,681.9708522,681.982951999991,682.982997999992,682.982997999992,682.982997999992,683.450596199982,space,0.465943299990613,None,683.452338700008,684.166414166659,684.491260699986,684.467664800002,684.467683099996,684.491260699986,684.491260699986,684.491260699986,686.109378900001,700,1,[1.640435700013768],[1.6404464000079315],,p2,1,2024-11-14_13h35.22.855,intentional binding,2024.1.5,None,2024-11-14 13h35.33.887253 +0530
0.1,1000,exp,11,8,140,6,686.124575900001,,686.1128685,686.124575900001,687.124771200004,687.124771200004,687.124771200004,687.492664399993,space,0.352993999986211,None,687.494434199994,687.608141266657,687.917973200005,687.907633399998,687.907653500006,687.917973200005,687.917973200005,687.917973200005,691.220766699989,300,1,[3.3120672999939416],[3.3120725999760907],,p2,1,2024-11-14_13h35.22.855,intentional binding,2024.1.5,None,2024-11-14 13h35.33.887253 +0530
0.4,1000,exp,11,9,141,10,691.2356975,,691.224314099993,691.2356975,692.235738599993,692.235738599993,692.235738599993,692.353330699989,space,0.11379990002024,None,692.35506859998,692.768777566675,693.082972899982,693.067552299995,693.067572300002,693.082972899982,693.082972899982,693.082972899982,694.333748200006,200,1,[1.265004399989266],[1.2650146000087261],,p2,1,2024-11-14_13h35.22.855,intentional binding,2024.1.5,None,2024-11-14 13h35.33.887253 +0530
0.1,1000,exp,11,10,142,3,694.349730599992,,694.337262999994,694.349730599992,695.349764499988,695.349764499988,695.349764499988,695.633765000006,space,0.269531300000381,None,695.635482499987,695.749623866668,696.058500899991,696.047663799982,696.047682799981,696.058500899991,696.058500899991,696.058500899991,697.1957329,100,1,[1.1469107000157237],[1.1469223000167403],,p2,1,2024-11-14_13h35.22.855,intentional binding,2024.1.5,None,2024-11-14 13h35.33.887253 +0530
0.7,1000,exp,11,11,143,11,697.210705899983,,697.199304899987,697.210705899983,698.211046099983,698.211046099983,698.211046099983,698.578166699997,space,0.359265299979597,None,698.579910900007,699.293769366665,699.610058899998,699.597742599988,699.597793299996,699.610058899998,699.610058899998,699.610058899998,701.894583199988,700,1,[2.294933900004253],[2.294947000016691],,p2,1,2024-11-14_13h35.22.855,intentional binding,2024.1.5,None,2024-11-14 13h35.33.887253 +0530
0.7,1000,exp,12,0,144,8,701.910160300002,,701.89806789998,701.910160300002,702.910036099987,702.910036099987,702.910036099987,703.444370499987,space,0.519662999984575,None,703.446231599984,704.160155866648,704.469101199997,704.457616,704.457636799983,704.469101199997,704.469101199997,704.469101199997,706.106300999993,300,1,[1.6474652999895625],[1.6474725999869406],,p2,1,2024-11-14_13h35.22.855,intentional binding,2024.1.5,None,2024-11-14 13h35.33.887253 +0530
0.7,1000,exp,12,1,145,11,706.120965899987,,706.109819200006,706.120965899987,707.120854299981,707.120854299981,707.120854299981,707.421751199989,space,0.285464200016577,None,707.423505099985,708.137626666667,708.451613799989,708.437820099993,708.437838999991,708.451613799989,708.451613799989,708.451613799989,709.585956399998,500,1,[1.147013900015736],[1.1470185999933165],,p2,1,2024-11-14_13h35.22.855,intentional binding,2024.1.5,None,2024-11-14 13h35.33.887253 +0530
0.4,1000,exp,12,2,146,7,709.601502899983,,709.5894348,709.601502899983,710.601458399993,710.601458399993,710.601458399993,711.219051699998,space,0.614061800006311,None,711.220815299981,711.634842066651,711.959934099985,711.937588999979,711.937606899999,711.959934099985,711.959934099985,711.959934099985,713.160685299983,500,1,[1.2218859000131488],[1.2218970000103582],,p2,1,2024-11-14_13h35.22.855,intentional binding,2024.1.5,None,2024-11-14 13h35.33.887253 +0530
0.4,1000,exp,12,3,147,10,713.176620299986,,713.164246100001,713.176620299986,714.176684799982,714.176684799982,714.176684799982,714.394218500005,space,0.212659299984807,None,714.395928199985,714.809856666663,715.119354900002,715.107605700003,715.107632500003,715.119354900002,715.119354900002,715.119354900002,716.805698699987,600,1,[1.6969579000142403],[1.6969637000001967],,p2,1,2024-11-14_13h35.22.855,intentional binding,2024.1.5,None,2024-11-14 13h35.33.887253 +0530
0.7,400,unexp,12,4,148,2,716.820766599994,,716.80921159999,716.820766599994,717.820759499999,717.820759499999,717.820759499999,718.238620799995,space,0.40612470000633,None,718.240408699989,718.954264966659,719.268455499987,719.257606200001,719.257626200008,719.268455499987,719.268455499987,719.268455499987,720.535874699999,800,1,[1.2772365999990143],[1.277241600007983],,p2,1,2024-11-14_13h35.22.855,intentional binding,2024.1.5,None,2024-11-14 13h35.33.887253 +0530
0.7,1000,exp,12,5,149,5,720.551662299986,,720.539328799991,720.551662299986,721.5520808,721.5520808,721.5520808,722.619346499996,space,1.05116060000728,None,722.621099099983,723.335177466656,723.660392499995,723.637520399992,723.637539899995,723.660392499995,723.660392499995,723.660392499995,725.727780999994,300,1,[2.0890464000112843],[2.0890562999993563],722.551873899996,p2,1,2024-11-14_13h35.22.855,intentional binding,2024.1.5,None,2024-11-14 13h35.33.887253 +0530
0.4,1000,exp,12,6,150,4,725.743713899981,,725.731228799996,725.743713899981,726.743565599987,726.743565599987,726.743565599987,727.027803899982,space,0.268020600022282,None,727.029535499984,727.443683866648,727.7478176,727.737455299997,727.737475000002,727.7478176,727.7478176,727.7478176,729.416007399996,200,1,[1.6770912999927532],[1.6771045999776106],,p2,1,2024-11-14_13h35.22.855,intentional binding,2024.1.5,None,2024-11-14 13h35.33.887253 +0530
0.1,400,unexp,12,7,151,0,729.431335000001,,729.419992599986,729.431335000001,730.431168499985,730.431168499985,730.431168499985,731.615572199982,space,1.18218889998388,None,731.617284899985,731.731106066673,732.038594099984,732.027656799997,732.027677100006,732.038594099984,732.038594099984,732.038594099984,733.722882400005,200,1,[1.694185300002573],[1.6941901000100188],731.431321099983,p2,1,2024-11-14_13h35.22.855,intentional binding,2024.1.5,None,2024-11-14 13h35.33.887253 +0530
0.1,1000,exp,12,8,152,3,733.813360500004,,733.726427599992,733.813360500004,734.730044800002,734.730044800002,734.813736299984,735.198024699988,space,0.457573199993931,None,735.199810799997,735.313779466673,735.617977699993,735.607476499979,735.60749569998,735.617977699993,735.617977699993,735.617977699993,736.868583100004,100,1,[1.2600655000132974],[1.2600714000000153],,p2,1,2024-11-14_13h35.22.855,intentional binding,2024.1.5,None,2024-11-14 13h35.33.887253 +0530
0.1,1000,exp,12,9,153,6,736.884308599983,,736.872123199981,736.884308599983,737.884393099986,737.884393099986,737.884393099986,738.202186499984,space,0.314323500002502,None,738.204019900004,738.317730266663,738.627777499991,738.617412499996,738.617432300001,738.627777499991,738.627777499991,738.627777499991,740.997203499981,100,1,[2.3786057000106666],[2.3786114000249654],,p2,1,2024-11-14_13h35.22.855,intentional binding,2024.1.5,None,2024-11-14 13h35.33.887253 +0530
0.1,1000,exp,12,10,154,9,741.012257399998,,741.001090399979,741.012257399998,742.012144999986,742.012144999986,742.012144999986,742.563133399992,space,0.535435099998722,None,742.564896299999,742.678572666661,742.992785099981,742.977483199997,742.9775027,742.992785099981,742.992785099981,742.992785099981,745.243577799993,200,1,[2.2650586999952793],[2.2650636000034865],,p2,1,2024-11-14_13h35.22.855,intentional binding,2024.1.5,None,2024-11-14 13h35.33.887253 +0530
0.4,400,unexp,12,11,155,1,745.259258599981,,745.2470608,745.259258599981,746.259370899992,746.259370899992,746.259370899992,747.177043999982,space,0.905351800000062,None,747.178755600005,747.592895866667,747.89808699998,747.887738799996,747.887758800003,747.89808699998,747.89808699998,747.89808699998,750.200577899988,200,1,[2.311753399990266],[2.31176039998536],,p2,1,2024-11-14_13h35.22.855,intentional binding,2024.1.5,None,2024-11-14 13h35.33.887253 +0530
0.1,1000,exp,13,0,156,6,750.21466659999,,750.204072399996,750.21466659999,751.214760200004,751.214760200004,751.214760200004,751.532361099991,space,0.302702399989357,None,751.534528899996,751.648379666647,751.957871099992,751.947348799993,751.947368399997,751.957871099992,751.957871099992,751.957871099992,753.477010400005,100,1,[1.5285909999802243],[1.5285964999930002],,p2,1,2024-11-14_13h35.22.855,intentional binding,2024.1.5,None,2024-11-14 13h35.33.887253 +0530
0.1,1000,exp,13,1,157,3,753.492390300002,,753.480562299985,753.492390300002,754.492452000006,754.492452000006,754.492452000006,755.443521799985,space,0.937234699988039,None,755.445280299988,755.55896316667,755.873139200005,755.857451799995,755.857471900003,755.873139200005,755.873139200005,755.873139200005,757.574141299992,200,1,[1.715570000000298],[1.7155803999921773],,p2,1,2024-11-14_13h35.22.855,intentional binding,2024.1.5,None,2024-11-14 13h35.33.887253 +0530
0.4,1000,exp,13,2,158,7,757.589766299992,,757.577584899991,757.589766299992,758.58979279999,758.58979279999,758.58979279999,759.240632500005,space,0.644137900002534,None,759.242391499982,759.656556666658,759.967940500006,759.957467100001,759.957485899999,759.967940500006,759.967940500006,759.967940500006,763.419923899986,299,1,[3.461214300012216],[3.4612233999941964],,p2,1,2024-11-14_13h35.22.855,intentional binding,2024.1.5,None,2024-11-14 13h35.33.887253 +0530
0.4,1000,exp,13,3,159,10,763.434127799992,,763.423480700003,763.434127799992,764.434673099982,764.434673099982,764.434673099982,765.185042600002,space,0.743613800004823,None,765.187147199991,765.600670766671,765.91458479999,765.897385599994,765.897406999982,765.91458479999,765.91458479999,765.91458479999,767.348826900008,400,1,[1.4502547000010964],[1.4502594000077806],,p2,1,2024-11-14_13h35.22.855,intentional binding,2024.1.5,None,2024-11-14 13h35.33.887253 +0530
0.7,1000,exp,13,4,160,5,767.364614999999,,767.352378499985,767.364614999999,768.364776000002,768.364776000002,768.364776000002,768.98265749999,space,0.605553700006567,None,768.984452799981,769.698057366655,770.008128199988,769.997467899986,769.997487399989,770.008128199988,770.008128199988,770.008128199988,772.094829699985,440,1,[2.096269800007576],[2.0962765000003856],,p2,1,2024-11-14_13h35.22.855,intentional binding,2024.1.5,None,2024-11-14 13h35.33.887253 +0530
0.1,400,unexp,13,5,161,0,772.109358099988,,772.09835689998,772.109358099988,773.109055399982,773.109055399982,773.109055399982,774.793044199992,space,1.67070499999682,None,774.794748999993,774.90924906667,775.223132099985,775.207418200007,775.207439199992,775.223132099985,775.223132099985,775.223132099985,777.073929200007,300,1,[1.8653777999861632],[1.8653824999928474],774.109082699986,p2,1,2024-11-14_13h35.22.855,intentional binding,2024.1.5,None,2024-11-14 13h35.33.887253 +0530
0.4,400,unexp,13,6,162,1,777.089501799987,,777.077442199981,777.089501799987,778.08991119999,778.08991119999,778.08991119999,779.490886999993,space,1.38814490000368,None,779.492585900007,779.906444066674,780.231424900005,780.207421800005,780.207440600003,780.231424900005,780.231424900005,780.231424900005,781.948925799981,600,1,[1.7404350000142585],[1.7404403999971692],779.089580100001,p2,1,2024-11-14_13h35.22.855,intentional binding,2024.1.5,None,2024-11-14 13h35.33.887253 +0530
0.4,1000,exp,13,7,163,4,781.964836300002,,781.95245099999,781.964836300002,782.964603100001,782.964603100001,782.964603100001,783.248931599985,space,0.279493299982278,None,783.25066629998,783.664635966652,783.989672700001,783.967326699989,783.967345499987,783.989672700001,783.989672700001,783.989672700001,785.640623299987,200,1,[1.6721358000067994],[1.6721464000002015],,p2,1,2024-11-14_13h35.22.855,intentional binding,2024.1.5,None,2024-11-14 13h35.33.887253 +0530
0.7,1000,exp,13,8,164,11,785.65622959999,,785.644139499986,785.65622959999,786.656313299987,786.656313299987,786.656313299987,786.9744679,space,0.316787100018701,None,786.976213699993,787.689824466656,787.997946799995,787.987354099983,787.987372300006,787.997946799995,787.997946799995,787.997946799995,789.349840399984,999,1,[1.3613709000055678],[1.3613829999812879],,p2,1,2024-11-14_13h35.22.855,intentional binding,2024.1.5,None,2024-11-14 13h35.33.887253 +0530
0.7,1000,exp,13,9,165,8,789.364651299984,,789.353325200005,789.364651299984,790.364605599985,790.364605599985,790.364605599985,790.748824099981,space,0.377033700002357,None,790.750555100007,791.46466906666,791.789594000002,791.767450299987,791.767471200001,791.789594000002,791.789594000002,791.789594000002,793.591454299982,700,1,[1.8229162999778055],[1.82292169998982],,p2,1,2024-11-14_13h35.22.855,intentional binding,2024.1.5,None,2024-11-14 13h35.33.887253 +0530
0.7,400,unexp,13,10,166,2,793.606180300005,,793.594982499984,793.606180300005,794.606357499986,794.606357499986,794.606357499986,795.140422199998,space,0.517874499986647,None,795.142156199989,795.856088366654,796.181595500006,796.157302899985,796.157321200008,796.181595500006,796.181595500006,796.181595500006,799.598448899982,600,1,[3.440067399991676],[3.440072400000645],,p2,1,2024-11-14_13h35.22.855,intentional binding,2024.1.5,None,2024-11-14 13h35.33.887253 +0530
0.1,1000,exp,13,11,167,9,799.614413899981,,799.601978299994,799.614413899981,800.614546800003,800.614546800003,800.614546800003,801.632257999998,space,1.00845829999889,None,801.6343605,801.747873366669,802.058160699991,802.047318600002,802.047337399999,802.058160699991,802.058160699991,802.058160699991,804.127839699999,500,1,[2.079471300006844],[2.0794774999958463],801.614483999991,p2,1,2024-11-14_13h35.22.855,intentional binding,2024.1.5,None,2024-11-14 13h35.33.887253 +0530
0.7,1000,exp,14,0,168,8,804.142226800003,,804.131295300001,804.142226800003,805.142250999983,805.142250999983,805.142250999983,805.243268499995,space,0.0898860999732278,None,805.244997000002,805.95870526665,806.272959800001,806.257299299992,806.257317699987,806.272959800001,806.272959800001,806.272959800001,808.258360100008,600,1,[1.9999140000145417],[1.9999193999974523],,p2,1,2024-11-14_13h35.22.855,intentional binding,2024.1.5,None,2024-11-14 13h35.33.887253 +0530
0.1,400,unexp,14,1,169,0,808.272688099998,,808.261842699984,808.272688099998,809.273033699981,809.273033699981,809.273033699981,809.440987999988,space,0.162777899997309,None,809.442706200003,809.556135466646,809.881231799984,809.85737719998,809.857396899984,809.881231799984,809.881231799984,809.881231799984,811.732055500004,600,1,[1.8735095000010915],[1.8735195999906864],,p2,1,2024-11-14_13h35.22.855,intentional binding,2024.1.5,None,2024-11-14 13h35.33.887253 +0530
0.1,1000,exp,14,2,170,3,811.747853499983,,811.735576200008,811.747853499983,812.74793089999,812.74793089999,812.74793089999,813.032120299991,space,0.268743600026937,None,813.033861600008,813.147960566658,813.458032099996,813.447291799996,813.447310499993,813.458032099996,813.458032099996,813.458032099996,816.160313,700,1,[2.7119505000009667],[2.711956300016027],,p2,1,2024-11-14_13h35.22.855,intentional binding,2024.1.5,None,2024-11-14 13h35.33.887253 +0530
0.7,400,unexp,14,3,171,2,816.175695699989,,816.163832999999,816.175695699989,817.175473999989,817.175473999989,817.175473999989,817.793250099989,space,0.601262100011809,None,817.794996899989,818.508635266659,818.822820400004,818.807323599991,818.807343399996,818.822820400004,818.822820400004,818.822820400004,821.307139699988,900,1,[2.4986293999827467],[2.4986395000014454],,p2,1,2024-11-14_13h35.22.855,intentional binding,2024.1.5,None,2024-11-14 13h35.33.887253 +0530
0.4,1000,exp,14,4,172,4,821.322872499994,,821.310668399994,821.322872499994,822.322781299998,822.322781299998,822.322781299998,822.823665400007,space,0.48657439998351,None,822.8253921,823.239609866669,823.548183299979,823.537193800003,823.537212499999,823.548183299979,823.548183299979,823.548183299979,828.399681499985,400,1,[4.8614249999809545],[4.861430599994492],,p2,1,2024-11-14_13h35.22.855,intentional binding,2024.1.5,None,2024-11-14 13h35.33.887253 +0530
0.4,1000,exp,14,5,173,7,828.414468200004,,828.403182899987,828.414468200004,829.414653699991,829.414653699991,829.414653699991,830.165515100001,space,0.749092000012752,None,830.16724889999,830.581186266649,830.888198400004,830.877345899993,830.877363599982,830.888198400004,830.888198400004,830.888198400004,833.48969419999,500,1,[2.6112912999815308],[2.6112973999988753],,p2,1,2024-11-14_13h35.22.855,intentional binding,2024.1.5,None,2024-11-14 13h35.33.887253 +0530
0.1,1000,exp,14,6,174,6,833.504805100005,,833.493175099982,833.504805100005,834.504861399997,834.504861399997,834.504861399997,834.956039299985,space,0.439245099987602,None,834.957902900002,835.071428866653,835.378440100001,835.367288399983,835.367307799985,835.378440100001,835.378440100001,835.378440100001,837.378870599991,200,1,[2.010550399980275],[2.010555299988482],,p2,1,2024-11-14_13h35.22.855,intentional binding,2024.1.5,None,2024-11-14 13h35.33.887253 +0530
0.1,1000,exp,14,7,175,9,837.394715300004,,837.382469500008,837.394715300004,838.395316099981,838.395316099981,838.395316099981,839.345824299991,space,0.940865000011399,None,839.347659699997,839.461720966651,839.767716400005,839.757226199989,839.757244299981,839.767716400005,839.767716400005,839.767716400005,842.352313799987,300,1,[2.5940037999826018],[2.59401689999504],,p2,1,2024-11-14_13h35.22.855,intentional binding,2024.1.5,None,2024-11-14 13h35.33.887253 +0530
0.7,1000,exp,14,8,176,5,842.367617899989,,842.355754899996,842.367617899989,843.367657399998,843.367657399998,843.367657399998,843.4353481,space,0.0509151000005659,None,843.437077899987,844.15107976666,844.45808099999,844.447219399997,844.447239300003,844.45808099999,844.45808099999,844.45808099999,847.592495499994,900,1,[3.1441348000080325],[3.144141700002365],,p2,1,2024-11-14_13h35.22.855,intentional binding,2024.1.5,None,2024-11-14 13h35.33.887253 +0530
0.4,1000,exp,14,9,177,10,847.607946500008,,847.596014799987,847.607946500008,848.607810199988,848.607810199988,848.607810199988,848.992695699999,space,0.377620000013849,None,848.994471699989,849.408172266649,849.717508000002,849.707147899986,849.707166999986,849.717508000002,849.717508000002,849.717508000002,850.804022900003,500,1,[1.0957886999822222],[1.0957942999957595],,p2,1,2024-11-14_13h35.22.855,intentional binding,2024.1.5,None,2024-11-14 13h35.33.887253 +0530
0.7,1000,exp,14,10,178,11,850.819001399999,,850.807856300002,850.819001399999,851.818975800008,851.818975800008,851.818975800008,852.136937699979,space,0.310693600011291,None,852.13865529999,852.852306366669,853.16646399998,853.147219699982,853.147239999991,853.16646399998,853.16646399998,853.16646399998,855.250522599992,600,1,[2.1020983000053093],[2.102108999999473],,p2,1,2024-11-14_13h35.22.855,intentional binding,2024.1.5,None,2024-11-14 13h35.33.887253 +0530
0.4,400,unexp,14,11,179,1,855.266371699981,,855.254020599998,855.266371699981,856.266361999995,856.266361999995,856.266361999995,856.300760899991,space,0.0310272999922745,None,856.302481699997,856.716556166652,857.04136979999,857.017224899988,857.01724299998,857.04136979999,857.04136979999,857.04136979999,858.676257899992,400,1,[1.6577500000130385],[1.6577631999971345],,p2,1,2024-11-14_13h35.22.855,intentional binding,2024.1.5,None,2024-11-14 13h35.33.887253 +0530
0.4,400,unexp,15,0,180,1,858.6914024,,858.6797563,858.6914024,859.691394099995,859.691394099995,859.691394099995,860.175562399992,space,0.474266600009287,None,860.177349999984,860.591404166659,860.897845500003,860.887104699999,860.887124000001,860.897845500003,860.897845500003,860.897845500003,862.182125899999,500,1,[1.2937604000035208],[1.2937738000182435],,p2,1,2024-11-14_13h35.22.855,intentional binding,2024.1.5,None,2024-11-14 13h35.33.887253 +0530
0.4,1000,exp,15,1,181,4,862.197729599982,,862.185590699984,862.197729599982,863.197865299997,863.197865299997,863.197865299997,863.715180700005,space,0.508131199982017,None,863.716914499993,864.130992266674,864.438160399994,864.427184600005,864.427205299988,864.438160399994,864.438160399994,864.438160399994,866.806024999998,200,1,[2.3776668999926187],[2.377680400008103],,p2,1,2024-11-14_13h35.22.855,intentional binding,2024.1.5,None,2024-11-14 13h35.33.887253 +0530
0.4,1000,exp,15,2,182,7,866.821552399983,,866.80955809998,866.821552399983,867.82151899999,867.82151899999,867.82151899999,868.70590489998,space,0.871457099972758,None,868.70768599998,869.121549866661,869.427982499998,869.417144599982,869.417161499994,869.427982499998,869.427982499998,869.427982499998,877.428990399989,400,1,[8.010664100002032],[8.010674899996957],,p2,1,2024-11-14_13h35.22.855,intentional binding,2024.1.5,None,2024-11-14 13h35.33.887253 +0530
0.7,1000,exp,15,3,183,5,877.444765599998,,877.432477299997,877.444765599998,878.445025299996,878.445025299996,878.445025299996,878.795787499985,space,0.344800999999279,None,878.797577799996,879.511531566652,879.817489399982,879.807014299993,879.807032199984,879.817489399982,879.817489399982,879.817489399982,881.101853100001,500,1,[1.2933582999976352],[1.2933633000066038],,p2,1,2024-11-14_13h35.22.855,intentional binding,2024.1.5,None,2024-11-14 13h35.33.887253 +0530
0.4,1000,exp,15,4,184,10,881.117393799999,,881.105527799984,881.117393799999,882.117706599995,882.117706599995,882.117706599995,882.434981099999,space,0.300645600014832,None,882.436734099989,882.850983266664,883.158174299984,883.14714679998,883.147166699986,883.158174299984,883.158174299984,883.158174299984,884.408677600004,500,1,[1.2604483999894],[1.2604535999998916],,p2,1,2024-11-14_13h35.22.855,intentional binding,2024.1.5,None,2024-11-14 13h35.33.887253 +0530
0.1,1000,exp,15,5,185,9,884.424543600006,,884.412943200005,884.424543600006,885.424588900001,885.424588900001,885.424588900001,885.542569099984,space,0.10361359998933,None,885.544361999986,885.658081666658,885.967611800006,885.9571038,885.957123200002,885.967611800006,885.967611800006,885.967611800006,889.93838919999,300,1,[3.9800730999850202],[3.980086099996697],,p2,1,2024-11-14_13h35.22.855,intentional binding,2024.1.5,None,2024-11-14 13h35.33.887253 +0530
0.1,1000,exp,15,6,186,6,889.952583899983,,889.941956199997,889.952583899983,890.952248499991,890.952248499991,890.952248499991,892.17015749999,space,1.20720499998424,None,892.171928900003,892.285485566656,892.599434899981,892.587275600003,892.587296599988,892.599434899981,892.599434899981,892.599434899981,894.150777400006,400,1,[1.5624079999979585],[1.5624130000069272],891.952549699985,p2,1,2024-11-14_13h35.22.855,intentional binding,2024.1.5,None,2024-11-14 13h35.33.887253 +0530
0.7,1000,exp,15,7,187,8,894.166226500005,,894.154323099996,894.166226500005,895.166277499986,895.166277499986,895.166277499986,895.717042999982,space,0.541545999993105,None,895.719060300005,896.433154566654,896.737834200001,896.727055800002,896.727072899987,896.737834200001,896.737834200001,896.737834200001,899.622762899991,500,1,[2.8946317000081763],[2.8946380999987014],,p2,1,2024-11-14_13h35.22.855,intentional binding,2024.1.5,None,2024-11-14 13h35.33.887253 +0530
0.1,1000,exp,15,9,189,3,907.677725199988,,907.666114099993,907.677725199988,908.677841900004,908.677841900004,908.677841900004,909.312151199993,space,0.631229099992197,None,909.313890299993,909.427898866652,909.737566399999,909.727025700006,909.727045000007,909.737566399999,909.737566399999,909.737566399999,914.657228700002,300,1,[4.92916139998124],[4.9291672999970615],,p2,1,2024-11-14_13h35.22.855,intentional binding,2024.1.5,None,2024-11-14 13h35.33.887253 +0530
0.7,400,unexp,15,10,190,2,914.672594500007,,914.660737600003,914.672594500007,915.672187199991,915.672187199991,915.672187199991,917.323002799996,space,1.64278679998824,None,917.324840999994,918.038781866668,918.353203200008,918.336966100003,918.336985700007,918.353203200008,918.353203200008,918.353203200008,920.620426699985,400,1,[2.282244300004095],[2.2822549999982584],916.672292699979,p2,1,2024-11-14_13h35.22.855,intentional binding,2024.1.5,None,2024-11-14 13h35.33.887253 +0530
0.7,1000,exp,15,11,191,11,920.63637589998,,920.62389269998,920.63637589998,921.636568199989,921.636568199989,921.636568199989,922.337187800003,space,0.689903399994364,None,922.338924399985,923.052930966664,923.357895399997,923.346997099987,923.347016099986,923.357895399997,923.357895399997,923.357895399997,924.809104399989,400,1,[1.4609379000030458],[1.4609510999871418],,p2,1,2024-11-14_13h35.22.855,intentional binding,2024.1.5,None,2024-11-14 13h35.33.887253 +0530
0.1,1000,exp,16,0,192,9,924.824298599997,,924.812593399984,924.824298599997,925.824479999981,925.824479999981,925.824479999981,926.408591799991,space,0.581892499991227,None,926.410312699998,926.524551066661,926.849278199981,926.826960699982,926.826978900004,926.849278199981,926.849278199981,926.849278199981,928.417464700004,200,1,[1.589081400015857],[1.589094599999953],,p2,1,2024-11-14_13h35.22.855,intentional binding,2024.1.5,None,2024-11-14 13h35.33.887253 +0530
0.4,1000,exp,16,1,193,4,928.432620399981,,928.421028199984,928.432620399981,929.432885799994,929.432885799994,929.432885799994,929.767012700002,space,0.326874100021087,None,929.76875019999,930.182787566653,930.493964399997,930.483080200007,930.483098299999,930.493964399997,930.493964399997,930.493964399997,931.461835499998,100,1,[0.9776857999968342],[0.9776914999820292],,p2,1,2024-11-14_13h35.22.855,intentional binding,2024.1.5,None,2024-11-14 13h35.33.887253 +0530
0.7,1000,exp,16,2,194,8,931.477176299988,,931.465333900007,931.477176299988,932.477071700007,932.477071700007,932.477071700007,932.844960599992,space,0.366624600021169,None,932.846767799987,933.560750966663,933.87469539998,933.856972899986,933.856990700006,933.87469539998,933.87469539998,933.87469539998,936.093283199996,400,1,[2.235242199996719],[2.235249199991813],,p2,1,2024-11-14_13h35.22.855,intentional binding,2024.1.5,None,2024-11-14 13h35.33.887253 +0530
0.4,1000,exp,16,3,195,7,936.107904599979,,936.096819500002,936.107904599979,937.107763399981,937.107763399981,937.107763399981,939.492455900007,space,2.37449069999275,None,939.494280299987,939.907771166651,940.217590399989,940.2069701,940.206989400001,940.217590399989,940.217590399989,940.217590399989,942.037491900002,300,1,[1.8292439000215381],[1.8292501000105403],938.107697600004,p2,1,2024-11-14_13h35.22.855,intentional binding,2024.1.5,None,2024-11-14 13h35.33.887253 +0530
0.7,400,unexp,16,4,196,2,942.052156599995,,942.041519699997,942.052156599995,943.05218899998,943.05218899998,943.05218899998,944.353181999992,space,1.29360410000663,None,944.354904000007,945.068593066655,945.382798299979,945.366877599998,945.366896799998,945.382798299979,945.382798299979,945.382798299979,947.417605199997,800,1,[2.0496680999931414],[2.0496737000066787],944.05196099999,p2,1,2024-11-14_13h35.22.855,intentional binding,2024.1.5,None,2024-11-14 13h35.33.887253 +0530
0.1,1000,exp,16,5,197,6,947.432788200007,,947.421140199993,947.432788200007,948.432739899989,948.432739899989,948.432739899989,949.150364800007,space,0.701532900013262,None,949.152131799987,949.266280666667,949.591197200003,949.566862999986,949.566881499981,949.591197200003,949.591197200003,949.591197200003,951.775378899998,300,1,[2.2072710000211373],[2.2072842000052333],,p2,1,2024-11-14_13h35.22.855,intentional binding,2024.1.5,None,2024-11-14 13h35.33.887253 +0530
0.1,400,unexp,16,6,198,0,951.79118879998,,951.778862699983,951.79118879998,952.791089799983,952.791089799983,952.791089799983,953.592563199985,space,0.793433200014988,None,953.594320200005,953.707935666669,954.017599199986,954.006929399999,954.006947099988,954.017599199986,954.017599199986,954.017599199986,955.637052200007,400,1,[1.6289894999936223],[1.6289953999803402],,p2,1,2024-11-14_13h35.22.855,intentional binding,2024.1.5,None,2024-11-14 13h35.33.887253 +0530
0.4,400,unexp,16,7,199,1,955.652585500007,,955.640620099992,955.652585500007,956.6520647,956.6520647,956.6520647,956.986373599997,space,0.321133699995698,None,956.988123999996,957.401943766661,957.716723799997,957.696902399999,957.696919399983,957.716723799997,957.716723799997,957.716723799997,959.316990899999,500,1,[1.61906729999464],[1.6190720000013243],,p2,1,2024-11-14_13h35.22.855,intentional binding,2024.1.5,None,2024-11-14 13h35.33.887253 +0530
0.1,1000,exp,16,8,200,3,959.332540400006,,959.320474399981,959.332540400006,960.332771099987,960.332771099987,960.332771099987,960.866825699981,space,0.519141199998558,None,960.868549799983,960.982754366651,961.288045499998,961.276879799989,961.27689909999,961.288045499998,961.288045499998,961.288045499998,962.738765599992,100,1,[1.4607020000112243],[1.4607066000171471],,p2,1,2024-11-14_13h35.22.855,intentional binding,2024.1.5,None,2024-11-14 13h35.33.887253 +0530
0.4,1000,exp,16,9,201,10,962.754699599987,,962.7422257,962.754699599987,963.754696499993,963.754696499993,963.754696499993,964.372308799997,space,0.615637999988394,None,964.374074799998,964.787891266668,965.097571899998,965.086810299981,965.08682929998,965.097571899998,965.097571899998,965.097571899998,966.767225699994,400,1,[1.6792276999913156],[1.679233300004853],,p2,1,2024-11-14_13h35.22.855,intentional binding,2024.1.5,None,2024-11-14 13h35.33.887253 +0530
0.7,1000,exp,16,10,202,5,966.7822591,,966.770761699998,966.7822591,967.782134499983,967.782134499983,967.782134499983,968.083447599987,space,0.29902329997276,None,968.085267799994,968.798671066648,969.113016999996,969.096875799995,969.096894399991,969.113016999996,969.113016999996,969.113016999996,971.614357899991,990,1,[2.5163961999933235],[2.516402300010668],,p2,1,2024-11-14_13h35.22.855,intentional binding,2024.1.5,None,2024-11-14 13h35.33.887253 +0530
0.7,1000,exp,16,11,203,11,971.629620599997,,971.617866099987,971.629620599997,972.629579200002,972.629579200002,972.629579200002,973.0638416,space,0.431706000003032,None,973.065551999986,973.779585866669,974.087566700007,974.076770399988,974.076789599989,974.087566700007,974.087566700007,974.087566700007,975.671796499984,800,1,[1.5938856000138912],[1.5938903999922331],,p2,1,2024-11-14_13h35.22.855,intentional binding,2024.1.5,None,2024-11-14 13h35.33.887253 +0530
0.7,1000,exp,17,0,204,8,975.687527700007,,975.675289200008,975.687527700007,976.687390599982,976.687390599982,976.687390599982,976.955082900007,space,0.265064199978951,None,976.956847399997,977.670848866667,977.977157299989,977.966782000003,977.966803299991,977.977157299989,977.977157299989,977.977157299989,979.1782695,500,1,[1.2103918000066187],[1.210396700014826],,p2,1,2024-11-14_13h35.22.855,intentional binding,2024.1.5,None,2024-11-14 13h35.33.887253 +0530
0.1,1000,exp,17,1,205,3,979.193896499986,,979.181754699995,979.193896499986,980.193737299996,980.193737299996,980.193737299996,981.362002799986,space,1.15842550000525,None,981.363719099987,981.477526066654,981.787363299984,981.776876999997,981.776895799994,981.787363299984,981.787363299984,981.787363299984,983.456879999983,200,1,[1.6788284000067506],[1.6788400000077672],981.19396449998,p2,1,2024-11-14_13h35.22.855,intentional binding,2024.1.5,None,2024-11-14 13h35.33.887253 +0530
0.4,1000,exp,17,2,206,10,983.472047999996,,983.4603986,983.472047999996,984.471514799981,984.471514799981,984.471514799981,985.489568699995,space,1.01626190001844,None,985.491620799992,985.904707266662,986.218684899999,986.206883499981,986.206903499988,986.218684899999,986.218684899999,986.218684899999,989.569876399997,300,1,[3.3619541999942157],[3.361959100002423],985.471493699995,p2,1,2024-11-14_13h35.22.855,intentional binding,2024.1.5,None,2024-11-14 13h35.33.887253 +0530
0.4,1000,exp,17,3,207,7,989.585471300001,,989.573366099998,989.585471300001,990.585617200006,990.585617200006,990.585617200006,991.602990999992,space,1.01322940000682,None,991.6047999,992.019042466655,992.32769939999,992.316773099999,992.316791699995,992.32769939999,992.32769939999,992.32769939999,993.931280399993,200,1,[1.6134708999888971],[1.6134765000024345],991.585491999984,p2,1,2024-11-14_13h35.22.855,intentional binding,2024.1.5,None,2024-11-14 13h35.33.887253 +0530
0.4,400,unexp,17,4,208,1,993.946398600005,,993.934858499997,993.946398600005,994.946506999986,994.946506999986,994.946506999986,996.264419499988,space,1.30944850001833,None,996.266206500004,996.679729766653,996.994002599997,996.977095199982,996.977115299989,996.994002599997,996.994002599997,996.994002599997,998.528286799992,300,1,[1.54996969999047],[1.5499796999793034],995.946270199987,p2,1,2024-11-14_13h35.22.855,intentional binding,2024.1.5,None,2024-11-14 13h35.33.887253 +0530
0.1,400,unexp,17,5,209,0,998.543679299997,,998.53196339999,998.543679299997,999.543869899993,999.543869899993,999.543869899993,1000.16149899998,space,0.607975600025384,None,1000.16325119999,1000.27700616667,1000.58777359998,1000.57689520001,1000.5769136,1000.58777359998,1000.58777359998,1000.58777359998,1003.4231101,200,1,[2.8451773000124376],[2.8451834000006784],,p2,1,2024-11-14_13h35.22.855,intentional binding,2024.1.5,None,2024-11-14 13h35.33.887253 +0530
0.1,1000,exp,17,6,210,9,1003.4381687,,1003.42672399999,1003.4381687,1004.43813679999,1004.43813679999,1004.43813679999,1004.8392355,space,0.385238199989544,None,1004.8410472,1004.95510316667,1005.26865059999,1005.25680639999,1005.2568298,1005.26865059999,1005.26865059999,1005.26865059999,1008.01984649998,400,1,[2.7617376999987755],[2.761775499995565],,p2,1,2024-11-14_13h35.22.855,intentional binding,2024.1.5,None,2024-11-14 13h35.33.887253 +0530
0.7,400,unexp,17,7,211,2,1008.03535419999,,1008.02336560001,1008.03535419999,1009.03556069999,1009.03556069999,1009.03556069999,1010.40306349998,space,1.35241970000789,None,1010.4049202,1011.11889386666,1011.42769789998,1011.4167762,1011.4167952,1011.42769789998,1011.42769789998,1011.42769789998,1014.43223790001,300,1,[3.014344800001709],[3.014351500023622],1010.03571669999,p2,1,2024-11-14_13h35.22.855,intentional binding,2024.1.5,None,2024-11-14 13h35.33.887253 +0530
0.7,1000,exp,17,8,212,5,1014.44654119998,,1014.43575879998,1014.44654119998,1015.4464822,1015.4464822,1015.4464822,1017.36401799999,space,1.9009253999975,None,1017.3659838,1018.08001836666,1018.39383059999,1018.37710879999,1018.3771288,1018.39383059999,1018.39383059999,1018.39383059999,1019.86126559999,300,1,[1.48293639998883],[1.4829466999799479],1016.44657080001,p2,1,2024-11-14_13h35.22.855,intentional binding,2024.1.5,None,2024-11-14 13h35.33.887253 +0530
